"whichPrime","trialType","rt","response","trial_index","time_elapsed","word","expectedCategory","expectedCategoryAsDisplayed","leftCategory","rightCategory","correct","question_order"
"CisHet","prime","19791"," ","2","2018316","","","","","","",""
"","iat","2582","j","5","2028021","Epilepsy","Physical illness","Physical illness","Mental illness","Physical illness","true",""
"","iat","1310","f","7","2029588","OCD","Mental illness","Mental illness","Mental illness","Physical illness","true",""
"","iat","1418","f","9","2031262","Autism","Mental illness","Mental illness","Mental illness","Physical illness","true",""
"","iat","813","f","11","2032330","Schizophrenia","Mental illness","Mental illness","Mental illness","Physical illness","true",""
"","iat","668","f","13","2033253","Autism","Mental illness","Mental illness","Mental illness","Physical illness","true",""
"","iat","930","j","15","2034437","Common Cold","Physical illness","Physical illness","Mental illness","Physical illness","true",""
"","iat","1010","f","17","2035702","PTSD","Mental illness","Mental illness","Mental illness","Physical illness","true",""
"","iat","1254","j","19","2037210","Diabetes","Physical illness","Physical illness","Mental illness","Physical illness","true",""
"","iat","807","f","21","2038272","Bipolar Disorder","Mental illness","Mental illness","Mental illness","Physical illness","true",""
"","iat","1689","f","23","2040218","PTSD","Mental illness","Mental illness","Mental illness","Physical illness","true",""
"","iat","940","f","25","2041414","Psychosis","Mental illness","Mental illness","Mental illness","Physical illness","true",""
"","iat","819","j","27","2042488","Asthma","Physical illness","Physical illness","Mental illness","Physical illness","true",""
"","iat","1139","j","29","2043881","Influenza","Physical illness","Physical illness","Mental illness","Physical illness","true",""
"","iat","881","f","31","2045016","Depression","Mental illness","Mental illness","Mental illness","Physical illness","true",""
"","iat","732","j","33","2046002","Diabetes","Physical illness","Physical illness","Mental illness","Physical illness","true",""
"","iat","889","j","35","2047146","Meningitis","Physical illness","Physical illness","Mental illness","Physical illness","true",""
"","iat","802","f","37","2048203","Psychosis","Mental illness","Mental illness","Mental illness","Physical illness","true",""
"","iat","1586","j","39","2050044","Pneumonia","Physical illness","Physical illness","Mental illness","Physical illness","true",""
"","iat","614","j","41","2050911","Common Cold","Physical illness","Physical illness","Mental illness","Physical illness","true",""
"","iat","1040","j","43","2052206","Migraine","Physical illness","Physical illness","Mental illness","Physical illness","true",""
"","iat","635","f","45","2053096","Bipolar Disorder","Mental illness","Mental illness","Mental illness","Physical illness","true",""
"","iat","800","j","47","2054150","Arthritis","Physical illness","Physical illness","Mental illness","Physical illness","true",""
"","iat","684","j","49","2055088","Epilepsy","Physical illness","Physical illness","Mental illness","Physical illness","true",""
"","iat","806","j","51","2056148","Migraine","Physical illness","Physical illness","Mental illness","Physical illness","true",""
"","iat","879","f","53","2057282","Anorexia","Mental illness","Mental illness","Mental illness","Physical illness","true",""
"","iat","1966","j","55","2059502","Leukemia","Physical illness","Physical illness","Mental illness","Physical illness","true",""
"","iat","1341","f","57","2061098","Anorexia","Mental illness","Mental illness","Mental illness","Physical illness","true",""
"","iat","1330","j","59","2062683","Pneumonia","Physical illness","Physical illness","Mental illness","Physical illness","true",""
"","iat","643","j","61","2063581","Asthma","Physical illness","Physical illness","Mental illness","Physical illness","true",""
"","iat","964","f","63","2064800","OCD","Mental illness","Mental illness","Mental illness","Physical illness","true",""
"","iat","849","j","65","2065902","Arthritis","Physical illness","Physical illness","Mental illness","Physical illness","true",""
"","iat","1094","f","67","2067250","Anxiety","Mental illness","Mental illness","Mental illness","Physical illness","true",""
"","iat","747","f","69","2068251","Panic Disorder","Mental illness","Mental illness","Mental illness","Physical illness","true",""
"","iat","609","f","71","2069115","Anxiety","Mental illness","Mental illness","Mental illness","Physical illness","true",""
"","iat","580","f","73","2069949","Schizophrenia","Mental illness","Mental illness","Mental illness","Physical illness","true",""
"","iat","719","j","75","2070923","Leukemia","Physical illness","Physical illness","Mental illness","Physical illness","true",""
"","iat","1918","f","78","2077605","Nonbinary","LGBTQ+","LGBTQ+","LGBTQ+","Cishet","true",""
"","iat","1650","f","80","2079510","Androgynous","LGBTQ+","LGBTQ+","LGBTQ+","Cishet","true",""
"","iat","1892","f","82","2081656","Fluidity","LGBTQ+","LGBTQ+","LGBTQ+","Cishet","true",""
"","iat","1066","f","84","2082977","Pansexual","LGBTQ+","LGBTQ+","LGBTQ+","Cishet","true",""
"","iat","957","f","86","2084189","Queerness","LGBTQ+","LGBTQ+","LGBTQ+","Cishet","true",""
"","iat","1148","j","88","2085591","Cisgendered","Cishet","Cishet","LGBTQ+","Cishet","true",""
"","iat","1161","f","90","2087006","Bisexual","LGBTQ+","LGBTQ+","LGBTQ+","Cishet","true",""
"","iat","711","f","92","2087971","Pansexual","LGBTQ+","LGBTQ+","LGBTQ+","Cishet","true",""
"","iat","1217","j","94","2089443","Hetero","Cishet","Cishet","LGBTQ+","Cishet","true",""
"","iat","982","f","96","2090680","Bisexual","LGBTQ+","LGBTQ+","LGBTQ+","Cishet","true",""
"","iat","1400","f","98","2092335","Diversity","LGBTQ+","LGBTQ+","LGBTQ+","Cishet","true",""
"","iat","1853","j","100","2094443","Hetero","Cishet","Cishet","LGBTQ+","Cishet","true",""
"","iat","1426","f","102","2096124","Inclusivity","LGBTQ+","LGBTQ+","LGBTQ+","Cishet","true",""
"","iat","1185","f","104","2097564","Genderqueer","LGBTQ+","LGBTQ+","LGBTQ+","Cishet","true",""
"","iat","694","f","106","2098512","Queerness","LGBTQ+","LGBTQ+","LGBTQ+","Cishet","true",""
"","iat","908","f","108","2099675","Inclusivity","LGBTQ+","LGBTQ+","LGBTQ+","Cishet","true",""
"","iat","2098","j","110","2102027","Biological","Cishet","Cishet","LGBTQ+","Cishet","true",""
"","iat","1073","j","112","2103355","Heterosexual","Cishet","Cishet","LGBTQ+","Cishet","true",""
"","iat","1263","j","114","2104873","Cissexual","Cishet","Cishet","LGBTQ+","Cishet","true",""
"","iat","1288","f","116","2106415","Diversity","LGBTQ+","LGBTQ+","LGBTQ+","Cishet","true",""
"","iat","1110","j","118","2107780","Cissexual","Cishet","Cishet","LGBTQ+","Cishet","true",""
"","iat","1696","j","120","2109730","Cisgendered","Cishet","Cishet","LGBTQ+","Cishet","true",""
"","iat","1867","j","122","2111851","Conformity","Cishet","Cishet","LGBTQ+","Cishet","true",""
"","iat","2490","j","124","2114596","Straight","Cishet","Cishet","LGBTQ+","Cishet","true",""
"","iat","1974","f","126","2116824","Usual","Cishet","Cishet","LGBTQ+","Cishet","false",""
"","iat","2960","j","128","2120038","Conformity","Cishet","Cishet","LGBTQ+","Cishet","true",""
"","iat","923","f","130","2121216","Androgynous","LGBTQ+","LGBTQ+","LGBTQ+","Cishet","true",""
"","iat","1438","j","132","2122908","Traditional","Cishet","Cishet","LGBTQ+","Cishet","true",""
"","iat","1758","j","134","2124919","Usual","Cishet","Cishet","LGBTQ+","Cishet","true",""
"","iat","2132","j","136","2127306","Heteronormative","Cishet","Cishet","LGBTQ+","Cishet","true",""
"","iat","782","f","138","2128341","Fluidity","LGBTQ+","LGBTQ+","LGBTQ+","Cishet","true",""
"","iat","2793","j","140","2131388","Traditional","Cishet","Cishet","LGBTQ+","Cishet","true",""
"","iat","1632","f","142","2133273","Genderqueer","LGBTQ+","LGBTQ+","LGBTQ+","Cishet","true",""
"","iat","518","f","144","2134045","Transgender","LGBTQ+","LGBTQ+","LGBTQ+","Cishet","true",""
"","iat","831","j","146","2135130","Straight","Cishet","Cishet","LGBTQ+","Cishet","true",""
"","iat","973","j","148","2136357","Heteronormative","Cishet","Cishet","LGBTQ+","Cishet","true",""
"","iat","1348","j","151","2149001","Asthma","Physical illness","Physical illness or LGBTQ+","Mental illness or Cishet","Physical illness or LGBTQ+","true",""
"","iat","1670","j","153","2150925","Genderqueer","LGBTQ+","Physical illness or LGBTQ+","Mental illness or Cishet","Physical illness or LGBTQ+","true",""
"","iat","1592","j","155","2152771","Bisexual","LGBTQ+","Physical illness or LGBTQ+","Mental illness or Cishet","Physical illness or LGBTQ+","true",""
"","iat","965","f","157","2153991","Psychosis","Mental illness","Mental illness or Cishet","Mental illness or Cishet","Physical illness or LGBTQ+","true",""
"","iat","853","j","159","2155099","Influenza","Physical illness","Physical illness or LGBTQ+","Mental illness or Cishet","Physical illness or LGBTQ+","true",""
"","iat","1239","j","161","2156591","Transgender","LGBTQ+","Physical illness or LGBTQ+","Mental illness or Cishet","Physical illness or LGBTQ+","true",""
"","iat","1114","f","163","2157959","Depression","Mental illness","Mental illness or Cishet","Mental illness or Cishet","Physical illness or LGBTQ+","true",""
"","iat","1418","j","165","2159631","Pneumonia","Physical illness","Physical illness or LGBTQ+","Mental illness or Cishet","Physical illness or LGBTQ+","true",""
"","iat","1468","j","167","2161353","Androgynous","LGBTQ+","Physical illness or LGBTQ+","Mental illness or Cishet","Physical illness or LGBTQ+","true",""
"","iat","1126","f","169","2162733","Anorexia","Mental illness","Mental illness or Cishet","Mental illness or Cishet","Physical illness or LGBTQ+","true",""
"","iat","1697","j","171","2164685","Inclusivity","LGBTQ+","Physical illness or LGBTQ+","Mental illness or Cishet","Physical illness or LGBTQ+","true",""
"","iat","1511","f","173","2166451","Cissexual","Cishet","Mental illness or Cishet","Mental illness or Cishet","Physical illness or LGBTQ+","true",""
"","iat","808","f","175","2167512","Cisgendered","Cishet","Mental illness or Cishet","Mental illness or Cishet","Physical illness or LGBTQ+","true",""
"","iat","1187","f","177","2168953","Schizophrenia","Mental illness","Mental illness or Cishet","Mental illness or Cishet","Physical illness or LGBTQ+","true",""
"","iat","2939","f","179","2172147","Hetero","Cishet","Mental illness or Cishet","Mental illness or Cishet","Physical illness or LGBTQ+","true",""
"","iat","2177","j","181","2174578","Meningitis","Physical illness","Physical illness or LGBTQ+","Mental illness or Cishet","Physical illness or LGBTQ+","true",""
"","iat","840","f","183","2175671","Bipolar Disorder","Mental illness","Mental illness or Cishet","Mental illness or Cishet","Physical illness or LGBTQ+","true",""
"","iat","981","j","185","2176905","Diabetes","Physical illness","Physical illness or LGBTQ+","Mental illness or Cishet","Physical illness or LGBTQ+","true",""
"","iat","1715","j","187","2178874","Usual","Cishet","Mental illness or Cishet","Mental illness or Cishet","Physical illness or LGBTQ+","false",""
"","iat","9766","j","189","2188893","Common Cold","Physical illness","Physical illness or LGBTQ+","Mental illness or Cishet","Physical illness or LGBTQ+","true",""
"","iat","1618","f","191","2190767","Heteronormative","Cishet","Mental illness or Cishet","Mental illness or Cishet","Physical illness or LGBTQ+","true",""
"","iat","2103","f","193","2193125","Traditional","Cishet","Mental illness or Cishet","Mental illness or Cishet","Physical illness or LGBTQ+","true",""
"","iat","1609","f","195","2194988","Straight","Cishet","Mental illness or Cishet","Mental illness or Cishet","Physical illness or LGBTQ+","true",""
"","iat","2676","f","197","2197919","Anxiety","Mental illness","Mental illness or Cishet","Mental illness or Cishet","Physical illness or LGBTQ+","true",""
"","iat","1012","j","199","2199185","Biological","Cishet","Mental illness or Cishet","Mental illness or Cishet","Physical illness or LGBTQ+","false",""
"","iat","1231","j","201","2200669","Queerness","LGBTQ+","Physical illness or LGBTQ+","Mental illness or Cishet","Physical illness or LGBTQ+","true",""
"","iat","1581","f","203","2202504","Heterosexual","Cishet","Mental illness or Cishet","Mental illness or Cishet","Physical illness or LGBTQ+","true",""
"","iat","951","j","205","2203709","Epilepsy","Physical illness","Physical illness or LGBTQ+","Mental illness or Cishet","Physical illness or LGBTQ+","true",""
"","iat","1225","j","207","2205188","Pansexual","LGBTQ+","Physical illness or LGBTQ+","Mental illness or Cishet","Physical illness or LGBTQ+","true",""
"","iat","1937","f","209","2207380","Conformity","Cishet","Mental illness or Cishet","Mental illness or Cishet","Physical illness or LGBTQ+","true",""
"","iat","1750","f","211","2209384","Autism","Mental illness","Mental illness or Cishet","Mental illness or Cishet","Physical illness or LGBTQ+","true",""
"","iat","789","f","213","2210427","Panic Disorder","Mental illness","Mental illness or Cishet","Mental illness or Cishet","Physical illness or LGBTQ+","true",""
"","iat","713","j","215","2211394","Migraine","Physical illness","Physical illness or LGBTQ+","Mental illness or Cishet","Physical illness or LGBTQ+","true",""
"","iat","1080","j","217","2212729","Leukemia","Physical illness","Physical illness or LGBTQ+","Mental illness or Cishet","Physical illness or LGBTQ+","true",""
"","iat","985","j","219","2213969","Nonbinary","LGBTQ+","Physical illness or LGBTQ+","Mental illness or Cishet","Physical illness or LGBTQ+","true",""
"","iat","652","j","221","2214875","Fluidity","LGBTQ+","Physical illness or LGBTQ+","Mental illness or Cishet","Physical illness or LGBTQ+","true",""
"","iat","1545","f","224","2245068","Cissexual","Cishet","Physical illness or Cishet","Physical illness or Cishet","Mental illness or LGBTQ+","true",""
"","iat","1211","f","226","2246533","Hetero","Cishet","Physical illness or Cishet","Physical illness or Cishet","Mental illness or LGBTQ+","true",""
"","iat","1189","j","228","2247977","Anorexia","Mental illness","Mental illness or LGBTQ+","Physical illness or Cishet","Mental illness or LGBTQ+","true",""
"","iat","1624","j","230","2249855","Fluidity","LGBTQ+","Mental illness or LGBTQ+","Physical illness or Cishet","Mental illness or LGBTQ+","true",""
"","iat","1080","f","232","2251190","Influenza","Physical illness","Physical illness or Cishet","Physical illness or Cishet","Mental illness or LGBTQ+","true",""
"","iat","935","j","234","2252379","Depression","Mental illness","Mental illness or LGBTQ+","Physical illness or Cishet","Mental illness or LGBTQ+","true",""
"","iat","1706","j","236","2254339","Usual","Cishet","Physical illness or Cishet","Physical illness or Cishet","Mental illness or LGBTQ+","false",""
"","iat","2424","j","238","2257018","Genderqueer","LGBTQ+","Mental illness or LGBTQ+","Physical illness or Cishet","Mental illness or LGBTQ+","true",""
"","iat","1243","f","240","2258515","Migraine","Physical illness","Physical illness or Cishet","Physical illness or Cishet","Mental illness or LGBTQ+","true",""
"","iat","647","f","242","2259417","Arthritis","Physical illness","Physical illness or Cishet","Physical illness or Cishet","Mental illness or LGBTQ+","true",""
"","iat","943","j","244","2260614","Autism","Mental illness","Mental illness or LGBTQ+","Physical illness or Cishet","Mental illness or LGBTQ+","true",""
"","iat","777","j","246","2261645","Psychosis","Mental illness","Mental illness or LGBTQ+","Physical illness or Cishet","Mental illness or LGBTQ+","true",""
"","iat","1391","f","248","2263290","Traditional","Cishet","Physical illness or Cishet","Physical illness or Cishet","Mental illness or LGBTQ+","true",""
"","iat","4510","j","250","2268053","Inclusivity","LGBTQ+","Mental illness or LGBTQ+","Physical illness or Cishet","Mental illness or LGBTQ+","true",""
"","iat","1113","f","252","2269421","Epilepsy","Physical illness","Physical illness or Cishet","Physical illness or Cishet","Mental illness or LGBTQ+","true",""
"","iat","1009","j","254","2270685","Panic Disorder","Mental illness","Mental illness or LGBTQ+","Physical illness or Cishet","Mental illness or LGBTQ+","true",""
"","iat","890","j","256","2271829","Queerness","LGBTQ+","Mental illness or LGBTQ+","Physical illness or Cishet","Mental illness or LGBTQ+","true",""
"","iat","1205","f","258","2273288","Conformity","Cishet","Physical illness or Cishet","Physical illness or Cishet","Mental illness or LGBTQ+","true",""
"","iat","1757","f","260","2275298","Heterosexual","Cishet","Physical illness or Cishet","Physical illness or Cishet","Mental illness or LGBTQ+","true",""
"","iat","796","j","262","2276349","Transgender","LGBTQ+","Mental illness or LGBTQ+","Physical illness or Cishet","Mental illness or LGBTQ+","true",""
"","iat","1013","f","264","2277616","Meningitis","Physical illness","Physical illness or Cishet","Physical illness or Cishet","Mental illness or LGBTQ+","true",""
"","iat","1433","f","266","2279304","Asthma","Physical illness","Physical illness or Cishet","Physical illness or Cishet","Mental illness or LGBTQ+","true",""
"","iat","839","j","268","2280397","Anxiety","Mental illness","Mental illness or LGBTQ+","Physical illness or Cishet","Mental illness or LGBTQ+","true",""
"","iat","1173","f","270","2281825","Straight","Cishet","Physical illness or Cishet","Physical illness or Cishet","Mental illness or LGBTQ+","true",""
"","iat","1431","f","272","2283511","Heteronormative","Cishet","Physical illness or Cishet","Physical illness or Cishet","Mental illness or LGBTQ+","true",""
"","iat","805","j","274","2284570","Androgynous","LGBTQ+","Mental illness or LGBTQ+","Physical illness or Cishet","Mental illness or LGBTQ+","true",""
"","iat","848","j","276","2285673","Pansexual","LGBTQ+","Mental illness or LGBTQ+","Physical illness or Cishet","Mental illness or LGBTQ+","true",""
"","iat","1103","j","278","2287030","Schizophrenia","Mental illness","Mental illness or LGBTQ+","Physical illness or Cishet","Mental illness or LGBTQ+","true",""
"","iat","2513","j","280","2289797","Bisexual","LGBTQ+","Mental illness or LGBTQ+","Physical illness or Cishet","Mental illness or LGBTQ+","true",""
"","iat","1424","j","282","2291476","PTSD","Mental illness","Mental illness or LGBTQ+","Physical illness or Cishet","Mental illness or LGBTQ+","true",""
"","iat","946","f","284","2292676","Pneumonia","Physical illness","Physical illness or Cishet","Physical illness or Cishet","Mental illness or LGBTQ+","true",""
"","iat","716","j","286","2293647","Bipolar Disorder","Mental illness","Mental illness or LGBTQ+","Physical illness or Cishet","Mental illness or LGBTQ+","true",""
"","iat","918","f","288","2294819","Leukemia","Physical illness","Physical illness or Cishet","Physical illness or Cishet","Mental illness or LGBTQ+","true",""
"","iat","1083","j","290","2296156","Nonbinary","LGBTQ+","Mental illness or LGBTQ+","Physical illness or Cishet","Mental illness or LGBTQ+","true",""
"","iat","1072","f","292","2297482","Common Cold","Physical illness","Physical illness or Cishet","Physical illness or Cishet","Mental illness or LGBTQ+","true",""
"","iat","940","f","294","2298677","Cisgendered","Cishet","Physical illness or Cishet","Physical illness or Cishet","Mental illness or LGBTQ+","true",""
"","Questionnaire","97749","{""question1"":0,""question2"":1,""question3"":0,""question4"":0,""question5"":4,""question6"":4,""question7"":4,""question8"":0,""question9"":0,""question10"":4,""question11"":0,""question12"":4,""question13"":4,""question14"":4,""question15"":0}","296","2396685","","","","","","","[0,1,2,3,4,5,6,7,8,9,10,11,12,13,14]"
