"whichPrime","trialType","rt","response","trial_index","time_elapsed","word","expectedCategory","expectedCategoryAsDisplayed","leftCategory","rightCategory","correct","question_order"
"CisHet","prime","82760"," ","2","95617","","","","","","",""
"","iat","2943","j","5","116478","Inclusivity","LGBTQ+","LGBTQ+","Cishet","LGBTQ+","true",""
"","iat","5337","f","7","122073","Cissexual","Cishet","Cishet","Cishet","LGBTQ+","true",""
"","iat","1379","j","9","123711","Queerness","LGBTQ+","LGBTQ+","Cishet","LGBTQ+","true",""
"","iat","2171","j","11","126144","Cisgendered","Cishet","Cishet","Cishet","LGBTQ+","false",""
"","iat","1911","f","13","128318","Usual","Cishet","Cishet","Cishet","LGBTQ+","true",""
"","iat","3766","j","15","132353","Cisgendered","Cishet","Cishet","Cishet","LGBTQ+","false",""
"","iat","869","j","17","133484","Androgynous","LGBTQ+","LGBTQ+","Cishet","LGBTQ+","true",""
"","iat","4229","f","19","137972","Conformity","Cishet","Cishet","Cishet","LGBTQ+","true",""
"","iat","2463","f","21","140696","Biological","Cishet","Cishet","Cishet","LGBTQ+","true",""
"","iat","4798","f","23","145751","Usual","Cishet","Cishet","Cishet","LGBTQ+","true",""
"","iat","9142","j","25","155156","Genderqueer","LGBTQ+","LGBTQ+","Cishet","LGBTQ+","true",""
"","iat","698","f","27","156123","Traditional","Cishet","Cishet","Cishet","LGBTQ+","true",""
"","iat","710","f","29","157100","Straight","Cishet","Cishet","Cishet","LGBTQ+","true",""
"","iat","897","j","31","158253","Androgynous","LGBTQ+","LGBTQ+","Cishet","LGBTQ+","true",""
"","iat","874","j","33","159382","Genderqueer","LGBTQ+","LGBTQ+","Cishet","LGBTQ+","true",""
"","iat","1115","f","35","160763","Biological","Cishet","Cishet","Cishet","LGBTQ+","true",""
"","iat","1769","j","37","162788","Fluidity","LGBTQ+","LGBTQ+","Cishet","LGBTQ+","true",""
"","iat","827","f","39","163878","Cissexual","Cishet","Cishet","Cishet","LGBTQ+","true",""
"","iat","3630","j","41","167765","Bisexual","LGBTQ+","LGBTQ+","Cishet","LGBTQ+","true",""
"","iat","639","j","43","168666","Fluidity","LGBTQ+","LGBTQ+","Cishet","LGBTQ+","true",""
"","iat","1326","f","45","170252","Hetero","Cishet","Cishet","Cishet","LGBTQ+","true",""
"","iat","832","j","47","171349","Diversity","LGBTQ+","LGBTQ+","Cishet","LGBTQ+","true",""
"","iat","949","j","49","172553","Heteronormative","Cishet","Cishet","Cishet","LGBTQ+","false",""
"","iat","1028","j","51","173841","Heterosexual","Cishet","Cishet","Cishet","LGBTQ+","false",""
"","iat","2823","j","53","176933","Inclusivity","LGBTQ+","LGBTQ+","Cishet","LGBTQ+","true",""
"","iat","31883","j","55","209082","Heterosexual","Cishet","Cishet","Cishet","LGBTQ+","false",""
"","iat","676","j","57","210013","Nonbinary","LGBTQ+","LGBTQ+","Cishet","LGBTQ+","true",""
"","iat","514","j","59","210784","Transgender","LGBTQ+","LGBTQ+","Cishet","LGBTQ+","true",""
"","iat","638","j","61","211683","Transgender","LGBTQ+","LGBTQ+","Cishet","LGBTQ+","true",""
"","iat","655","j","63","212594","Heteronormative","Cishet","Cishet","Cishet","LGBTQ+","false",""
"","iat","1531","f","65","214385","Straight","Cishet","Cishet","Cishet","LGBTQ+","true",""
"","iat","2880","f","67","217519","Conformity","Cishet","Cishet","Cishet","LGBTQ+","true",""
"","iat","749","j","69","218522","Bisexual","LGBTQ+","LGBTQ+","Cishet","LGBTQ+","true",""
"","iat","542","j","71","219324","Nonbinary","LGBTQ+","LGBTQ+","Cishet","LGBTQ+","true",""
"","iat","675","j","73","220254","Diversity","LGBTQ+","LGBTQ+","Cishet","LGBTQ+","true",""
"","iat","515","j","75","221022","Pansexual","LGBTQ+","LGBTQ+","Cishet","LGBTQ+","true",""
"","iat","3500","j","78","232232","Psychosis","Mental illness","Mental illness","Physical illness","Mental illness","true",""
"","iat","1468","f","80","233963","Asthma","Physical illness","Physical illness","Physical illness","Mental illness","true",""
"","iat","891","f","82","235118","Meningitis","Physical illness","Physical illness","Physical illness","Mental illness","true",""
"","iat","1522","f","84","236903","Diabetes","Physical illness","Physical illness","Physical illness","Mental illness","true",""
"","iat","1113","j","86","238271","PTSD","Mental illness","Mental illness","Physical illness","Mental illness","true",""
"","iat","746","j","88","239278","Depression","Mental illness","Mental illness","Physical illness","Mental illness","true",""
"","iat","706","f","90","240238","Influenza","Physical illness","Physical illness","Physical illness","Mental illness","true",""
"","iat","1524","j","92","242024","Autism","Mental illness","Mental illness","Physical illness","Mental illness","true",""
"","iat","1377","f","94","243655","Common Cold","Physical illness","Physical illness","Physical illness","Mental illness","true",""
"","iat","877","j","96","244799","Psychosis","Mental illness","Mental illness","Physical illness","Mental illness","true",""
"","iat","1130","f","98","246195","Pneumonia","Physical illness","Physical illness","Physical illness","Mental illness","true",""
"","iat","894","j","100","247350","Anxiety","Mental illness","Mental illness","Physical illness","Mental illness","true",""
"","iat","569","j","102","248182","Schizophrenia","Mental illness","Mental illness","Physical illness","Mental illness","true",""
"","iat","489","j","104","248930","Schizophrenia","Mental illness","Mental illness","Physical illness","Mental illness","true",""
"","iat","694","f","106","249880","Leukemia","Physical illness","Physical illness","Physical illness","Mental illness","true",""
"","iat","958","j","108","251100","OCD","Mental illness","Mental illness","Physical illness","Mental illness","true",""
"","iat","806","f","110","252168","Meningitis","Physical illness","Physical illness","Physical illness","Mental illness","true",""
"","iat","1027","f","112","253453","Arthritis","Physical illness","Physical illness","Physical illness","Mental illness","true",""
"","iat","595","j","114","254303","Depression","Mental illness","Mental illness","Physical illness","Mental illness","true",""
"","iat","2798","f","116","257362","Arthritis","Physical illness","Physical illness","Physical illness","Mental illness","true",""
"","iat","628","j","118","258246","Asthma","Physical illness","Physical illness","Physical illness","Mental illness","false",""
"","iat","2576","j","120","261080","Autism","Mental illness","Mental illness","Physical illness","Mental illness","true",""
"","iat","740","f","122","262081","Influenza","Physical illness","Physical illness","Physical illness","Mental illness","true",""
"","iat","1164","f","124","263503","Migraine","Physical illness","Physical illness","Physical illness","Mental illness","true",""
"","iat","1216","f","126","264976","Common Cold","Physical illness","Physical illness","Physical illness","Mental illness","true",""
"","iat","5203","f","128","270443","Anorexia","Mental illness","Mental illness","Physical illness","Mental illness","false",""
"","iat","1138","j","130","271843","Epilepsy","Physical illness","Physical illness","Physical illness","Mental illness","false",""
"","iat","1433","f","132","273539","OCD","Mental illness","Mental illness","Physical illness","Mental illness","false",""
"","iat","4396","f","134","278196","Anorexia","Mental illness","Mental illness","Physical illness","Mental illness","false",""
"","iat","1254","f","136","279706","Diabetes","Physical illness","Physical illness","Physical illness","Mental illness","true",""
"","iat","881","f","138","280848","Pneumonia","Physical illness","Physical illness","Physical illness","Mental illness","true",""
"","iat","1260","j","140","282373","Panic Disorder","Mental illness","Mental illness","Physical illness","Mental illness","true",""
"","iat","2406","j","142","285041","Bipolar Disorder","Mental illness","Mental illness","Physical illness","Mental illness","true",""
"","iat","643","j","144","285946","PTSD","Mental illness","Mental illness","Physical illness","Mental illness","true",""
"","iat","1896","f","146","288101","Migraine","Physical illness","Physical illness","Physical illness","Mental illness","true",""
"","iat","6629","j","148","294993","Anxiety","Mental illness","Mental illness","Physical illness","Mental illness","true",""
"","iat","15539","j","151","548215","Diversity","LGBTQ+","Physical illness or LGBTQ+","Mental illness or Cishet","Physical illness or LGBTQ+","true",""
"","iat","1707","j","153","550178","Heterosexual","Cishet","Mental illness or Cishet","Mental illness or Cishet","Physical illness or LGBTQ+","false",""
"","iat","2274","f","155","552709","Bipolar Disorder","Mental illness","Mental illness or Cishet","Mental illness or Cishet","Physical illness or LGBTQ+","true",""
"","iat","25658","j","157","578630","Androgynous","LGBTQ+","Physical illness or LGBTQ+","Mental illness or Cishet","Physical illness or LGBTQ+","true",""
"","iat","1233","f","159","580129","Cissexual","Cishet","Mental illness or Cishet","Mental illness or Cishet","Physical illness or LGBTQ+","true",""
"","iat","855","j","161","581245","Pansexual","LGBTQ+","Physical illness or LGBTQ+","Mental illness or Cishet","Physical illness or LGBTQ+","true",""
"","iat","1630","j","163","583143","Influenza","Physical illness","Physical illness or LGBTQ+","Mental illness or Cishet","Physical illness or LGBTQ+","true",""
"","iat","953","j","165","584360","Leukemia","Physical illness","Physical illness or LGBTQ+","Mental illness or Cishet","Physical illness or LGBTQ+","true",""
"","iat","3860","j","167","588478","Nonbinary","LGBTQ+","Physical illness or LGBTQ+","Mental illness or Cishet","Physical illness or LGBTQ+","true",""
"","iat","1073","j","169","589807","Epilepsy","Physical illness","Physical illness or LGBTQ+","Mental illness or Cishet","Physical illness or LGBTQ+","true",""
"","iat","1286","j","171","591353","Meningitis","Physical illness","Physical illness or LGBTQ+","Mental illness or Cishet","Physical illness or LGBTQ+","true",""
"","iat","1316","f","173","592924","Usual","Cishet","Mental illness or Cishet","Mental illness or Cishet","Physical illness or LGBTQ+","true",""
"","iat","4373","j","175","597558","Biological","Cishet","Mental illness or Cishet","Mental illness or Cishet","Physical illness or LGBTQ+","false",""
"","iat","1164","j","177","598975","Bisexual","LGBTQ+","Physical illness or LGBTQ+","Mental illness or Cishet","Physical illness or LGBTQ+","true",""
"","iat","1068","j","179","600303","Hetero","Cishet","Mental illness or Cishet","Mental illness or Cishet","Physical illness or LGBTQ+","false",""
"","iat","1069","j","181","601631","Transgender","LGBTQ+","Physical illness or LGBTQ+","Mental illness or Cishet","Physical illness or LGBTQ+","true",""
"","iat","2149","j","183","604035","Inclusivity","LGBTQ+","Physical illness or LGBTQ+","Mental illness or Cishet","Physical illness or LGBTQ+","true",""
"","iat","891","j","185","605187","Fluidity","LGBTQ+","Physical illness or LGBTQ+","Mental illness or Cishet","Physical illness or LGBTQ+","true",""
"","iat","1086","j","187","606539","Conformity","Cishet","Mental illness or Cishet","Mental illness or Cishet","Physical illness or LGBTQ+","false",""
"","iat","1803","j","189","608608","Anxiety","Mental illness","Mental illness or Cishet","Mental illness or Cishet","Physical illness or LGBTQ+","false",""
"","iat","8740","j","191","617616","Arthritis","Physical illness","Physical illness or LGBTQ+","Mental illness or Cishet","Physical illness or LGBTQ+","true",""
"","iat","1236","j","193","619108","Asthma","Physical illness","Physical illness or LGBTQ+","Mental illness or Cishet","Physical illness or LGBTQ+","true",""
"","iat","1032","f","195","620395","Panic Disorder","Mental illness","Mental illness or Cishet","Mental illness or Cishet","Physical illness or LGBTQ+","true",""
"","iat","1906","f","197","622562","Straight","Cishet","Mental illness or Cishet","Mental illness or Cishet","Physical illness or LGBTQ+","true",""
"","iat","6960","f","199","629777","PTSD","Mental illness","Mental illness or Cishet","Mental illness or Cishet","Physical illness or LGBTQ+","true",""
"","iat","2085","f","201","632124","Traditional","Cishet","Mental illness or Cishet","Mental illness or Cishet","Physical illness or LGBTQ+","true",""
"","iat","1961","f","203","634346","Heteronormative","Cishet","Mental illness or Cishet","Mental illness or Cishet","Physical illness or LGBTQ+","true",""
"","iat","1378","j","205","635994","Pneumonia","Physical illness","Physical illness or LGBTQ+","Mental illness or Cishet","Physical illness or LGBTQ+","true",""
"","iat","976","f","207","637229","OCD","Mental illness","Mental illness or Cishet","Mental illness or Cishet","Physical illness or LGBTQ+","true",""
"","iat","977","f","209","638462","Autism","Mental illness","Mental illness or Cishet","Mental illness or Cishet","Physical illness or LGBTQ+","true",""
"","iat","5550","j","211","644269","Queerness","LGBTQ+","Physical illness or LGBTQ+","Mental illness or Cishet","Physical illness or LGBTQ+","true",""
"","iat","2234","f","213","646770","Anorexia","Mental illness","Mental illness or Cishet","Mental illness or Cishet","Physical illness or LGBTQ+","true",""
"","iat","1072","j","215","648096","Common Cold","Physical illness","Physical illness or LGBTQ+","Mental illness or Cishet","Physical illness or LGBTQ+","true",""
"","iat","1287","f","217","649642","Schizophrenia","Mental illness","Mental illness or Cishet","Mental illness or Cishet","Physical illness or LGBTQ+","true",""
"","iat","1037","j","219","650933","Cisgendered","Cishet","Mental illness or Cishet","Mental illness or Cishet","Physical illness or LGBTQ+","false",""
"","iat","1734","j","221","652921","Diabetes","Physical illness","Physical illness or LGBTQ+","Mental illness or Cishet","Physical illness or LGBTQ+","true",""
"","iat","14857","j","224","711440","Influenza","Physical illness","Physical illness or Cishet","Mental illness or LGBTQ+","Physical illness or Cishet","true",""
"","iat","1740","f","226","713441","Queerness","LGBTQ+","Mental illness or LGBTQ+","Mental illness or LGBTQ+","Physical illness or Cishet","true",""
"","iat","973","f","228","714682","PTSD","Mental illness","Mental illness or LGBTQ+","Mental illness or LGBTQ+","Physical illness or Cishet","true",""
"","iat","901","f","230","715836","Panic Disorder","Mental illness","Mental illness or LGBTQ+","Mental illness or LGBTQ+","Physical illness or Cishet","true",""
"","iat","1118","j","232","717219","Leukemia","Physical illness","Physical illness or Cishet","Mental illness or LGBTQ+","Physical illness or Cishet","true",""
"","iat","929","f","234","718407","Pansexual","LGBTQ+","Mental illness or LGBTQ+","Mental illness or LGBTQ+","Physical illness or Cishet","true",""
"","iat","3840","j","236","722508","Pneumonia","Physical illness","Physical illness or Cishet","Mental illness or LGBTQ+","Physical illness or Cishet","true",""
"","iat","1888","j","238","724663","Cissexual","Cishet","Physical illness or Cishet","Mental illness or LGBTQ+","Physical illness or Cishet","true",""
"","iat","4263","j","240","729188","Migraine","Physical illness","Physical illness or Cishet","Mental illness or LGBTQ+","Physical illness or Cishet","true",""
"","iat","822","j","242","730272","Epilepsy","Physical illness","Physical illness or Cishet","Mental illness or LGBTQ+","Physical illness or Cishet","true",""
"","iat","2062","f","244","732595","Diversity","LGBTQ+","Mental illness or LGBTQ+","Mental illness or LGBTQ+","Physical illness or Cishet","true",""
"","iat","3914","f","246","736778","Transgender","LGBTQ+","Mental illness or LGBTQ+","Mental illness or LGBTQ+","Physical illness or Cishet","true",""
"","iat","1206","f","248","738242","Bisexual","LGBTQ+","Mental illness or LGBTQ+","Mental illness or LGBTQ+","Physical illness or Cishet","true",""
"","iat","1758","f","250","740257","Schizophrenia","Mental illness","Mental illness or LGBTQ+","Mental illness or LGBTQ+","Physical illness or Cishet","true",""
"","iat","1926","f","252","742438","Inclusivity","LGBTQ+","Mental illness or LGBTQ+","Mental illness or LGBTQ+","Physical illness or Cishet","true",""
"","iat","1839","j","254","744539","Straight","Cishet","Physical illness or Cishet","Mental illness or LGBTQ+","Physical illness or Cishet","true",""
"","iat","1465","j","256","746259","Common Cold","Physical illness","Physical illness or Cishet","Mental illness or LGBTQ+","Physical illness or Cishet","true",""
"","iat","903","j","258","747415","Hetero","Cishet","Physical illness or Cishet","Mental illness or LGBTQ+","Physical illness or Cishet","true",""
"","iat","1396","j","260","749066","Psychosis","Mental illness","Mental illness or LGBTQ+","Mental illness or LGBTQ+","Physical illness or Cishet","false",""
"","iat","1150","f","262","750474","Autism","Mental illness","Mental illness or LGBTQ+","Mental illness or LGBTQ+","Physical illness or Cishet","true",""
"","iat","1992","j","264","752724","Heteronormative","Cishet","Physical illness or Cishet","Mental illness or LGBTQ+","Physical illness or Cishet","true",""
"","iat","1025","f","266","754007","Depression","Mental illness","Mental illness or LGBTQ+","Mental illness or LGBTQ+","Physical illness or Cishet","true",""
"","iat","1435","f","268","755704","OCD","Mental illness","Mental illness or LGBTQ+","Mental illness or LGBTQ+","Physical illness or Cishet","true",""
"","iat","3233","f","270","759190","Heterosexual","Cishet","Physical illness or Cishet","Mental illness or LGBTQ+","Physical illness or Cishet","false",""
"","iat","720","f","272","760174","Fluidity","LGBTQ+","Mental illness or LGBTQ+","Mental illness or LGBTQ+","Physical illness or Cishet","true",""
"","iat","755","f","274","761184","Androgynous","LGBTQ+","Mental illness or LGBTQ+","Mental illness or LGBTQ+","Physical illness or Cishet","true",""
"","iat","1020","f","276","762465","Bipolar Disorder","Mental illness","Mental illness or LGBTQ+","Mental illness or LGBTQ+","Physical illness or Cishet","true",""
"","iat","1043","j","278","763770","Diabetes","Physical illness","Physical illness or Cishet","Mental illness or LGBTQ+","Physical illness or Cishet","true",""
"","iat","1174","j","280","765206","Anxiety","Mental illness","Mental illness or LGBTQ+","Mental illness or LGBTQ+","Physical illness or Cishet","false",""
"","iat","3766","j","282","769230","Usual","Cishet","Physical illness or Cishet","Mental illness or LGBTQ+","Physical illness or Cishet","true",""
"","iat","1241","f","284","770731","Genderqueer","LGBTQ+","Mental illness or LGBTQ+","Mental illness or LGBTQ+","Physical illness or Cishet","true",""
"","iat","1518","f","286","772508","Cisgendered","Cishet","Physical illness or Cishet","Mental illness or LGBTQ+","Physical illness or Cishet","false",""
"","iat","1351","j","288","774117","Meningitis","Physical illness","Physical illness or Cishet","Mental illness or LGBTQ+","Physical illness or Cishet","true",""
"","iat","4295","j","290","778670","Asthma","Physical illness","Physical illness or Cishet","Mental illness or LGBTQ+","Physical illness or Cishet","true",""
"","iat","1251","j","292","780176","Traditional","Cishet","Physical illness or Cishet","Mental illness or LGBTQ+","Physical illness or Cishet","true",""
"","iat","1268","j","294","781705","Conformity","Cishet","Physical illness or Cishet","Mental illness or LGBTQ+","Physical illness or Cishet","true",""
"","Questionnaire","99731","{""question1"":0,""question2"":0,""question3"":0,""question4"":0,""question5"":4,""question6"":4,""question7"":3,""question8"":0,""question9"":0,""question10"":"""",""question11"":0,""question12"":4,""question13"":4,""question14"":4,""question15"":1}","296","881712","","","","","","","[0,1,2,3,4,5,6,7,8,9,10,11,12,13,14]"
