"whichPrime","trialType","rt","response","trial_index","time_elapsed","word","expectedCategory","expectedCategoryAsDisplayed","leftCategory","rightCategory","correct","question_order"
"Queer","prime","37199"," ","2","43175","","","","","","",""
"","iat","33165","j","5","105424","Inclusivity","LGBTQ+","LGBTQ+","Cishet","LGBTQ+","true",""
"","iat","3974","f","7","109654","Biological","Cishet","Cishet","Cishet","LGBTQ+","true",""
"","iat","49903","j","9","159825","Usual","Cishet","Cishet","Cishet","LGBTQ+","false",""
"","iat","1692","f","11","161781","Queerness","LGBTQ+","LGBTQ+","Cishet","LGBTQ+","false",""
"","iat","1454","f","13","163501","Hetero","Cishet","Cishet","Cishet","LGBTQ+","true",""
"","iat","2083","f","15","165840","Conformity","Cishet","Cishet","Cishet","LGBTQ+","true",""
"","iat","15254","j","17","181361","Androgynous","LGBTQ+","LGBTQ+","Cishet","LGBTQ+","true",""
"","iat","1775","f","19","183401","Heteronormative","Cishet","Cishet","Cishet","LGBTQ+","true",""
"","iat","768","f","21","184432","Traditional","Cishet","Cishet","Cishet","LGBTQ+","true",""
"","iat","1054","f","23","185751","Cisgendered","Cishet","Cishet","Cishet","LGBTQ+","true",""
"","iat","672","f","25","186691","Traditional","Cishet","Cishet","Cishet","LGBTQ+","true",""
"","iat","1136","j","27","188091","Bisexual","LGBTQ+","LGBTQ+","Cishet","LGBTQ+","true",""
"","iat","715","f","29","189071","Hetero","Cishet","Cishet","Cishet","LGBTQ+","true",""
"","iat","1695","j","31","191023","Fluidity","LGBTQ+","LGBTQ+","Cishet","LGBTQ+","true",""
"","iat","2181","j","33","193461","Diversity","LGBTQ+","LGBTQ+","Cishet","LGBTQ+","true",""
"","iat","1050","f","35","194771","Heterosexual","Cishet","Cishet","Cishet","LGBTQ+","true",""
"","iat","1998","j","37","197031","Nonbinary","LGBTQ+","LGBTQ+","Cishet","LGBTQ+","true",""
"","iat","1546","j","39","198831","Inclusivity","LGBTQ+","LGBTQ+","Cishet","LGBTQ+","true",""
"","iat","975","j","41","200071","Genderqueer","LGBTQ+","LGBTQ+","Cishet","LGBTQ+","true",""
"","iat","514","j","43","200851","Genderqueer","LGBTQ+","LGBTQ+","Cishet","LGBTQ+","true",""
"","iat","1267","j","45","202382","Nonbinary","LGBTQ+","LGBTQ+","Cishet","LGBTQ+","true",""
"","iat","789","f","47","203431","Straight","Cishet","Cishet","Cishet","LGBTQ+","true",""
"","iat","1350","j","49","205041","Transgender","LGBTQ+","LGBTQ+","Cishet","LGBTQ+","true",""
"","iat","1112","j","51","206411","Diversity","LGBTQ+","LGBTQ+","Cishet","LGBTQ+","true",""
"","iat","793","j","53","207471","Androgynous","LGBTQ+","LGBTQ+","Cishet","LGBTQ+","true",""
"","iat","2684","f","55","210421","Heterosexual","Cishet","Cishet","Cishet","LGBTQ+","true",""
"","iat","848","f","57","211531","Straight","Cishet","Cishet","Cishet","LGBTQ+","true",""
"","iat","2077","f","59","213871","Heteronormative","Cishet","Cishet","Cishet","LGBTQ+","true",""
"","iat","1342","f","61","215471","Cissexual","Cishet","Cishet","Cishet","LGBTQ+","true",""
"","iat","1210","j","63","216941","Cisgendered","Cishet","Cishet","Cishet","LGBTQ+","false",""
"","iat","1614","j","65","218811","Pansexual","LGBTQ+","LGBTQ+","Cishet","LGBTQ+","true",""
"","iat","1281","j","67","220361","Pansexual","LGBTQ+","LGBTQ+","Cishet","LGBTQ+","true",""
"","iat","868","j","69","221491","Bisexual","LGBTQ+","LGBTQ+","Cishet","LGBTQ+","true",""
"","iat","604","j","71","222351","Queerness","LGBTQ+","LGBTQ+","Cishet","LGBTQ+","true",""
"","iat","725","f","73","223331","Usual","Cishet","Cishet","Cishet","LGBTQ+","true",""
"","iat","681","f","75","224271","Biological","Cishet","Cishet","Cishet","LGBTQ+","true",""
"","iat","4300","j","78","251609","PTSD","Mental illness","Mental illness","Physical illness","Mental illness","true",""
"","iat","848","j","80","252717","OCD","Mental illness","Mental illness","Physical illness","Mental illness","true",""
"","iat","1261","f","82","254237","Arthritis","Physical illness","Physical illness","Physical illness","Mental illness","true",""
"","iat","4796","f","84","259288","Autism","Mental illness","Mental illness","Physical illness","Mental illness","false",""
"","iat","23084","j","86","282638","Schizophrenia","Mental illness","Mental illness","Physical illness","Mental illness","true",""
"","iat","1040","f","88","283938","Influenza","Physical illness","Physical illness","Physical illness","Mental illness","true",""
"","iat","1621","f","90","285818","Meningitis","Physical illness","Physical illness","Physical illness","Mental illness","true",""
"","iat","1194","f","92","287282","Diabetes","Physical illness","Physical illness","Physical illness","Mental illness","true",""
"","iat","690","f","94","288231","Asthma","Physical illness","Physical illness","Physical illness","Mental illness","true",""
"","iat","643","j","96","289141","OCD","Mental illness","Mental illness","Physical illness","Mental illness","true",""
"","iat","754","f","98","290151","Migraine","Physical illness","Physical illness","Physical illness","Mental illness","true",""
"","iat","1809","j","100","292221","Anxiety","Mental illness","Mental illness","Physical illness","Mental illness","true",""
"","iat","758","j","102","293242","Bipolar Disorder","Mental illness","Mental illness","Physical illness","Mental illness","true",""
"","iat","1489","f","104","294991","Epilepsy","Physical illness","Physical illness","Physical illness","Mental illness","true",""
"","iat","809","j","106","296061","PTSD","Mental illness","Mental illness","Physical illness","Mental illness","true",""
"","iat","1551","j","108","297871","Depression","Mental illness","Mental illness","Physical illness","Mental illness","true",""
"","iat","1472","f","110","299601","Epilepsy","Physical illness","Physical illness","Physical illness","Mental illness","true",""
"","iat","1256","f","112","301121","Asthma","Physical illness","Physical illness","Physical illness","Mental illness","true",""
"","iat","1012","j","114","302401","Psychosis","Mental illness","Mental illness","Physical illness","Mental illness","true",""
"","iat","740","f","116","303401","Diabetes","Physical illness","Physical illness","Physical illness","Mental illness","true",""
"","iat","5758","j","118","309412","Anorexia","Mental illness","Mental illness","Physical illness","Mental illness","true",""
"","iat","798","f","120","310471","Migraine","Physical illness","Physical illness","Physical illness","Mental illness","true",""
"","iat","1909","j","122","312642","Panic Disorder","Mental illness","Mental illness","Physical illness","Mental illness","true",""
"","iat","557","j","124","313461","Schizophrenia","Mental illness","Mental illness","Physical illness","Mental illness","true",""
"","iat","836","f","126","314561","Arthritis","Physical illness","Physical illness","Physical illness","Mental illness","true",""
"","iat","704","f","128","315531","Autism","Mental illness","Mental illness","Physical illness","Mental illness","false",""
"","iat","889","f","130","316682","Common Cold","Physical illness","Physical illness","Physical illness","Mental illness","true",""
"","iat","813","f","132","317751","Pneumonia","Physical illness","Physical illness","Physical illness","Mental illness","true",""
"","iat","626","f","134","318631","Leukemia","Physical illness","Physical illness","Physical illness","Mental illness","true",""
"","iat","751","f","136","319641","Pneumonia","Physical illness","Physical illness","Physical illness","Mental illness","true",""
"","iat","776","j","138","320681","Anxiety","Mental illness","Mental illness","Physical illness","Mental illness","true",""
"","iat","975","j","140","321921","Depression","Mental illness","Mental illness","Physical illness","Mental illness","true",""
"","iat","716","f","142","322902","Meningitis","Physical illness","Physical illness","Physical illness","Mental illness","true",""
"","iat","13794","j","144","336961","Psychosis","Mental illness","Mental illness","Physical illness","Mental illness","true",""
"","iat","634","f","146","337852","Common Cold","Physical illness","Physical illness","Physical illness","Mental illness","true",""
"","iat","714","j","148","338822","Bipolar Disorder","Mental illness","Mental illness","Physical illness","Mental illness","true",""
"","iat","2439","j","151","351711","Queerness","LGBTQ+","Mental illness or LGBTQ+","Physical illness or Cishet","Mental illness or LGBTQ+","true",""
"","iat","1743","j","153","353721","Depression","Mental illness","Mental illness or LGBTQ+","Physical illness or Cishet","Mental illness or LGBTQ+","true",""
"","iat","778","j","155","354761","Transgender","LGBTQ+","Mental illness or LGBTQ+","Physical illness or Cishet","Mental illness or LGBTQ+","true",""
"","iat","597","j","157","355621","PTSD","Mental illness","Mental illness or LGBTQ+","Physical illness or Cishet","Mental illness or LGBTQ+","true",""
"","iat","1883","f","159","357761","Hetero","Cishet","Physical illness or Cishet","Physical illness or Cishet","Mental illness or LGBTQ+","true",""
"","iat","1140","j","161","359161","OCD","Mental illness","Mental illness or LGBTQ+","Physical illness or Cishet","Mental illness or LGBTQ+","true",""
"","iat","705","f","163","360132","Migraine","Physical illness","Physical illness or Cishet","Physical illness or Cishet","Mental illness or LGBTQ+","true",""
"","iat","1560","j","165","361951","Nonbinary","LGBTQ+","Mental illness or LGBTQ+","Physical illness or Cishet","Mental illness or LGBTQ+","true",""
"","iat","814","f","167","363021","Diabetes","Physical illness","Physical illness or Cishet","Physical illness or Cishet","Mental illness or LGBTQ+","true",""
"","iat","1246","f","169","364531","Meningitis","Physical illness","Physical illness or Cishet","Physical illness or Cishet","Mental illness or LGBTQ+","true",""
"","iat","2040","j","171","366831","Schizophrenia","Mental illness","Mental illness or LGBTQ+","Physical illness or Cishet","Mental illness or LGBTQ+","true",""
"","iat","859","j","173","367951","Fluidity","LGBTQ+","Mental illness or LGBTQ+","Physical illness or Cishet","Mental illness or LGBTQ+","true",""
"","iat","723","f","175","368941","Straight","Cishet","Physical illness or Cishet","Physical illness or Cishet","Mental illness or LGBTQ+","true",""
"","iat","1024","f","177","370231","Common Cold","Physical illness","Physical illness or Cishet","Physical illness or Cishet","Mental illness or LGBTQ+","true",""
"","iat","1014","f","179","371511","Cisgendered","Cishet","Physical illness or Cishet","Physical illness or Cishet","Mental illness or LGBTQ+","true",""
"","iat","3608","f","181","375381","Autism","Mental illness","Mental illness or LGBTQ+","Physical illness or Cishet","Mental illness or LGBTQ+","false",""
"","iat","1145","j","183","376791","Anxiety","Mental illness","Mental illness or LGBTQ+","Physical illness or Cishet","Mental illness or LGBTQ+","true",""
"","iat","1049","f","185","378101","Cissexual","Cishet","Physical illness or Cishet","Physical illness or Cishet","Mental illness or LGBTQ+","true",""
"","iat","591","f","187","378951","Asthma","Physical illness","Physical illness or Cishet","Physical illness or Cishet","Mental illness or LGBTQ+","true",""
"","iat","1511","j","189","380722","Anorexia","Mental illness","Mental illness or LGBTQ+","Physical illness or Cishet","Mental illness or LGBTQ+","true",""
"","iat","1126","f","191","382102","Conformity","Cishet","Physical illness or Cishet","Physical illness or Cishet","Mental illness or LGBTQ+","true",""
"","iat","1881","f","193","384241","Influenza","Physical illness","Physical illness or Cishet","Physical illness or Cishet","Mental illness or LGBTQ+","true",""
"","iat","1189","f","195","385691","Heteronormative","Cishet","Physical illness or Cishet","Physical illness or Cishet","Mental illness or LGBTQ+","true",""
"","iat","1010","f","197","386961","Biological","Cishet","Physical illness or Cishet","Physical illness or Cishet","Mental illness or LGBTQ+","true",""
"","iat","715","j","199","387941","Panic Disorder","Mental illness","Mental illness or LGBTQ+","Physical illness or Cishet","Mental illness or LGBTQ+","true",""
"","iat","670","j","201","388871","Psychosis","Mental illness","Mental illness or LGBTQ+","Physical illness or Cishet","Mental illness or LGBTQ+","true",""
"","iat","830","f","203","389961","Leukemia","Physical illness","Physical illness or Cishet","Physical illness or Cishet","Mental illness or LGBTQ+","true",""
"","iat","1060","j","205","391282","Genderqueer","LGBTQ+","Mental illness or LGBTQ+","Physical illness or Cishet","Mental illness or LGBTQ+","true",""
"","iat","871","j","207","392411","Diversity","LGBTQ+","Mental illness or LGBTQ+","Physical illness or Cishet","Mental illness or LGBTQ+","true",""
"","iat","790","j","209","393461","Pansexual","LGBTQ+","Mental illness or LGBTQ+","Physical illness or Cishet","Mental illness or LGBTQ+","true",""
"","iat","795","j","211","394521","Inclusivity","LGBTQ+","Mental illness or LGBTQ+","Physical illness or Cishet","Mental illness or LGBTQ+","true",""
"","iat","775","f","213","395551","Traditional","Cishet","Physical illness or Cishet","Physical illness or Cishet","Mental illness or LGBTQ+","true",""
"","iat","2178","f","215","397992","Arthritis","Physical illness","Physical illness or Cishet","Physical illness or Cishet","Mental illness or LGBTQ+","true",""
"","iat","652","j","217","398912","Bipolar Disorder","Mental illness","Mental illness or LGBTQ+","Physical illness or Cishet","Mental illness or LGBTQ+","true",""
"","iat","1110","f","219","400282","Heterosexual","Cishet","Physical illness or Cishet","Physical illness or Cishet","Mental illness or LGBTQ+","true",""
"","iat","787","f","221","401322","Usual","Cishet","Physical illness or Cishet","Physical illness or Cishet","Mental illness or LGBTQ+","true",""
"","iat","4559","j","224","415750","Depression","Mental illness","Mental illness or Cishet","Physical illness or LGBTQ+","Mental illness or Cishet","true",""
"","iat","1371","j","226","417380","Anorexia","Mental illness","Mental illness or Cishet","Physical illness or LGBTQ+","Mental illness or Cishet","true",""
"","iat","3696","j","228","421340","Heteronormative","Cishet","Mental illness or Cishet","Physical illness or LGBTQ+","Mental illness or Cishet","true",""
"","iat","1425","f","230","423020","Fluidity","LGBTQ+","Physical illness or LGBTQ+","Physical illness or LGBTQ+","Mental illness or Cishet","true",""
"","iat","1880","f","232","425160","Meningitis","Physical illness","Physical illness or LGBTQ+","Physical illness or LGBTQ+","Mental illness or Cishet","true",""
"","iat","1683","j","234","427110","Bipolar Disorder","Mental illness","Mental illness or Cishet","Physical illness or LGBTQ+","Mental illness or Cishet","true",""
"","iat","1695","f","236","429070","Bisexual","LGBTQ+","Physical illness or LGBTQ+","Physical illness or LGBTQ+","Mental illness or Cishet","true",""
"","iat","785","f","238","430110","Diversity","LGBTQ+","Physical illness or LGBTQ+","Physical illness or LGBTQ+","Mental illness or Cishet","true",""
"","iat","1627","j","240","432000","Cisgendered","Cishet","Mental illness or Cishet","Physical illness or LGBTQ+","Mental illness or Cishet","true",""
"","iat","1622","j","242","433881","Psychosis","Mental illness","Mental illness or Cishet","Physical illness or LGBTQ+","Mental illness or Cishet","true",""
"","iat","2284","f","244","436420","Queerness","LGBTQ+","Physical illness or LGBTQ+","Physical illness or LGBTQ+","Mental illness or Cishet","true",""
"","iat","1470","f","246","438150","Leukemia","Physical illness","Physical illness or LGBTQ+","Physical illness or LGBTQ+","Mental illness or Cishet","true",""
"","iat","3065","j","248","441470","Cissexual","Cishet","Mental illness or Cishet","Physical illness or LGBTQ+","Mental illness or Cishet","true",""
"","iat","3435","f","250","445160","Androgynous","LGBTQ+","Physical illness or LGBTQ+","Physical illness or LGBTQ+","Mental illness or Cishet","true",""
"","iat","1603","j","252","447030","PTSD","Mental illness","Mental illness or Cishet","Physical illness or LGBTQ+","Mental illness or Cishet","true",""
"","iat","3150","f","254","450440","Common Cold","Physical illness","Physical illness or LGBTQ+","Physical illness or LGBTQ+","Mental illness or Cishet","true",""
"","iat","3447","f","256","454150","Nonbinary","LGBTQ+","Physical illness or LGBTQ+","Physical illness or LGBTQ+","Mental illness or Cishet","true",""
"","iat","3272","j","258","457680","Usual","Cishet","Mental illness or Cishet","Physical illness or LGBTQ+","Mental illness or Cishet","true",""
"","iat","3288","f","260","461230","Diabetes","Physical illness","Physical illness or LGBTQ+","Physical illness or LGBTQ+","Mental illness or Cishet","true",""
"","iat","1300","j","262","462790","Traditional","Cishet","Mental illness or Cishet","Physical illness or LGBTQ+","Mental illness or Cishet","true",""
"","iat","1535","f","264","464590","Pansexual","LGBTQ+","Physical illness or LGBTQ+","Physical illness or LGBTQ+","Mental illness or Cishet","true",""
"","iat","1373","f","266","466230","Migraine","Physical illness","Physical illness or LGBTQ+","Physical illness or LGBTQ+","Mental illness or Cishet","true",""
"","iat","730","f","268","467220","Influenza","Physical illness","Physical illness or LGBTQ+","Physical illness or LGBTQ+","Mental illness or Cishet","true",""
"","iat","1275","f","270","468750","Epilepsy","Physical illness","Physical illness or LGBTQ+","Physical illness or LGBTQ+","Mental illness or Cishet","true",""
"","iat","651","f","272","469661","Biological","Cishet","Mental illness or Cishet","Physical illness or LGBTQ+","Mental illness or Cishet","false",""
"","iat","4027","f","274","473962","Transgender","LGBTQ+","Physical illness or LGBTQ+","Physical illness or LGBTQ+","Mental illness or Cishet","true",""
"","iat","1205","j","276","475433","Panic Disorder","Mental illness","Mental illness or Cishet","Physical illness or LGBTQ+","Mental illness or Cishet","true",""
"","iat","6370","j","278","482062","Straight","Cishet","Mental illness or Cishet","Physical illness or LGBTQ+","Mental illness or Cishet","true",""
"","iat","2023","f","280","484343","Inclusivity","LGBTQ+","Physical illness or LGBTQ+","Physical illness or LGBTQ+","Mental illness or Cishet","true",""
"","iat","2065","j","282","486663","Conformity","Cishet","Mental illness or Cishet","Physical illness or LGBTQ+","Mental illness or Cishet","true",""
"","iat","3992","j","284","490923","Heterosexual","Cishet","Mental illness or Cishet","Physical illness or LGBTQ+","Mental illness or Cishet","true",""
"","iat","1215","f","286","492403","Pneumonia","Physical illness","Physical illness or LGBTQ+","Physical illness or LGBTQ+","Mental illness or Cishet","true",""
"","iat","1156","f","288","493813","Autism","Mental illness","Mental illness or Cishet","Physical illness or LGBTQ+","Mental illness or Cishet","false",""
"","iat","4978","j","290","499054","Schizophrenia","Mental illness","Mental illness or Cishet","Physical illness or LGBTQ+","Mental illness or Cishet","true",""
"","iat","1002","j","292","500313","OCD","Mental illness","Mental illness or Cishet","Physical illness or LGBTQ+","Mental illness or Cishet","true",""
"","iat","1133","f","294","501703","Asthma","Physical illness","Physical illness or LGBTQ+","Physical illness or LGBTQ+","Mental illness or Cishet","true",""
"","Questionnaire","107831","{""question1"":2,""question2"":3,""question3"":2,""question4"":2,""question5"":1,""question6"":3,""question7"":3,""question8"":0,""question9"":0,""question10"":4,""question11"":3,""question12"":4,""question13"":4,""question14"":4,""question15"":0}","296","609796","","","","","","","[0,1,2,3,4,5,6,7,8,9,10,11,12,13,14]"
