"whichPrime","trialType","rt","response","trial_index","time_elapsed","word","expectedCategory","expectedCategoryAsDisplayed","leftCategory","rightCategory","correct","question_order"
"Queer","prime","721"," ","2","2580","","","","","","",""
"","iat","1752","j","5","6638","Common Cold","Physical illness","Physical illness","Mental illness","Physical illness","true",""
"","iat","2330","j","7","9223","Epilepsy","Physical illness","Physical illness","Mental illness","Physical illness","true",""
"","iat","3119","j","9","12597","Asthma","Physical illness","Physical illness","Mental illness","Physical illness","true",""
"","iat","880","f","11","13732","OCD","Mental illness","Mental illness","Mental illness","Physical illness","true",""
"","iat","905","j","13","14892","Leukemia","Physical illness","Physical illness","Mental illness","Physical illness","true",""
"","iat","2756","j","15","17903","Anorexia","Mental illness","Mental illness","Mental illness","Physical illness","false",""
"","iat","1805","j","17","19962","Migraine","Physical illness","Physical illness","Mental illness","Physical illness","true",""
"","iat","1487","f","19","21704","Psychosis","Mental illness","Mental illness","Mental illness","Physical illness","true",""
"","iat","798","j","21","22757","Influenza","Physical illness","Physical illness","Mental illness","Physical illness","true",""
"","iat","14801","f","23","37813","Anorexia","Mental illness","Mental illness","Mental illness","Physical illness","true",""
"","iat","3701","j","25","41768","Arthritis","Physical illness","Physical illness","Mental illness","Physical illness","true",""
"","iat","1036","f","27","43058","Schizophrenia","Mental illness","Mental illness","Mental illness","Physical illness","true",""
"","iat","1111","f","29","44424","PTSD","Mental illness","Mental illness","Mental illness","Physical illness","true",""
"","iat","4511","j","31","49189","Common Cold","Physical illness","Physical illness","Mental illness","Physical illness","true",""
"","iat","885","f","33","50329","Depression","Mental illness","Mental illness","Mental illness","Physical illness","true",""
"","iat","2606","j","35","53189","Migraine","Physical illness","Physical illness","Mental illness","Physical illness","true",""
"","iat","992","j","37","54435","Diabetes","Physical illness","Physical illness","Mental illness","Physical illness","true",""
"","iat","917","f","39","55604","Psychosis","Mental illness","Mental illness","Mental illness","Physical illness","true",""
"","iat","1495","j","41","57352","Diabetes","Physical illness","Physical illness","Mental illness","Physical illness","true",""
"","iat","1387","j","43","58994","Influenza","Physical illness","Physical illness","Mental illness","Physical illness","true",""
"","iat","584","j","45","59832","Depression","Mental illness","Mental illness","Mental illness","Physical illness","false",""
"","iat","3910","j","47","63996","Arthritis","Physical illness","Physical illness","Mental illness","Physical illness","true",""
"","iat","811","f","49","65063","Anxiety","Mental illness","Mental illness","Mental illness","Physical illness","true",""
"","iat","751","f","51","66067","Panic Disorder","Mental illness","Mental illness","Mental illness","Physical illness","true",""
"","iat","797","j","53","67118","Meningitis","Physical illness","Physical illness","Mental illness","Physical illness","true",""
"","iat","653","f","55","68026","PTSD","Mental illness","Mental illness","Mental illness","Physical illness","true",""
"","iat","937","f","57","69217","Autism","Mental illness","Mental illness","Mental illness","Physical illness","true",""
"","iat","998","f","59","70469","Bipolar Disorder","Mental illness","Mental illness","Mental illness","Physical illness","true",""
"","iat","685","f","61","71408","Anxiety","Mental illness","Mental illness","Mental illness","Physical illness","true",""
"","iat","635","f","63","72298","Panic Disorder","Mental illness","Mental illness","Mental illness","Physical illness","true",""
"","iat","735","j","65","73287","Meningitis","Physical illness","Physical illness","Mental illness","Physical illness","true",""
"","iat","645","f","67","74186","Bipolar Disorder","Mental illness","Mental illness","Mental illness","Physical illness","true",""
"","iat","909","j","69","75350","Pneumonia","Physical illness","Physical illness","Mental illness","Physical illness","true",""
"","iat","1708","j","71","77313","Asthma","Physical illness","Physical illness","Mental illness","Physical illness","true",""
"","iat","726","f","73","78294","Schizophrenia","Mental illness","Mental illness","Mental illness","Physical illness","true",""
"","iat","1012","j","75","79560","Epilepsy","Physical illness","Physical illness","Mental illness","Physical illness","true",""
"","iat","3047","f","78","85663","Heteronormative","Cishet","Cishet","Cishet","LGBTQ+","true",""
"","iat","1455","f","80","87372","Straight","Cishet","Cishet","Cishet","LGBTQ+","true",""
"","iat","1607","j","82","89235","Nonbinary","LGBTQ+","LGBTQ+","Cishet","LGBTQ+","true",""
"","iat","3997","f","84","93487","Traditional","Cishet","Cishet","Cishet","LGBTQ+","true",""
"","iat","1375","f","86","95115","Heterosexual","Cishet","Cishet","Cishet","LGBTQ+","true",""
"","iat","637","j","88","96007","Bisexual","LGBTQ+","LGBTQ+","Cishet","LGBTQ+","true",""
"","iat","1098","f","90","97360","Heterosexual","Cishet","Cishet","Cishet","LGBTQ+","true",""
"","iat","5402","j","92","103015","Usual","Cishet","Cishet","Cishet","LGBTQ+","false",""
"","iat","6039","j","94","109309","Androgynous","LGBTQ+","LGBTQ+","Cishet","LGBTQ+","true",""
"","iat","1555","f","96","111119","Usual","Cishet","Cishet","Cishet","LGBTQ+","true",""
"","iat","1635","j","98","113008","Inclusivity","LGBTQ+","LGBTQ+","Cishet","LGBTQ+","true",""
"","iat","1167","j","100","114429","Fluidity","LGBTQ+","LGBTQ+","Cishet","LGBTQ+","true",""
"","iat","2083","f","102","116767","Conformity","Cishet","Cishet","Cishet","LGBTQ+","true",""
"","iat","1495","f","104","118517","Cisgendered","Cishet","Cishet","Cishet","LGBTQ+","true",""
"","iat","988","j","106","119759","Fluidity","LGBTQ+","LGBTQ+","Cishet","LGBTQ+","true",""
"","iat","890","j","108","120903","Genderqueer","LGBTQ+","LGBTQ+","Cishet","LGBTQ+","true",""
"","iat","1172","f","110","122330","Cisgendered","Cishet","Cishet","Cishet","LGBTQ+","true",""
"","iat","738","j","112","123323","Genderqueer","LGBTQ+","LGBTQ+","Cishet","LGBTQ+","true",""
"","iat","670","j","114","124247","Queerness","LGBTQ+","LGBTQ+","Cishet","LGBTQ+","true",""
"","iat","1365","j","116","125867","Transgender","LGBTQ+","LGBTQ+","Cishet","LGBTQ+","true",""
"","iat","917","f","118","127038","Straight","Cishet","Cishet","Cishet","LGBTQ+","true",""
"","iat","9848","j","120","137141","Biological","Cishet","Cishet","Cishet","LGBTQ+","false",""
"","iat","2561","f","122","139957","Cissexual","Cishet","Cishet","Cishet","LGBTQ+","true",""
"","iat","1077","f","124","141288","Hetero","Cishet","Cishet","Cishet","LGBTQ+","true",""
"","iat","1251","f","126","142792","Biological","Cishet","Cishet","Cishet","LGBTQ+","true",""
"","iat","2333","j","128","145380","Inclusivity","LGBTQ+","LGBTQ+","Cishet","LGBTQ+","true",""
"","iat","2597","f","130","148230","Cissexual","Cishet","Cishet","Cishet","LGBTQ+","true",""
"","iat","2030","j","132","150514","Androgynous","LGBTQ+","LGBTQ+","Cishet","LGBTQ+","true",""
"","iat","2098","f","134","152866","Conformity","Cishet","Cishet","Cishet","LGBTQ+","true",""
"","iat","963","f","136","154083","Hetero","Cishet","Cishet","Cishet","LGBTQ+","true",""
"","iat","1147","j","138","155485","Pansexual","LGBTQ+","LGBTQ+","Cishet","LGBTQ+","true",""
"","iat","728","j","140","156467","Transgender","LGBTQ+","LGBTQ+","Cishet","LGBTQ+","true",""
"","iat","522","j","142","157244","Bisexual","LGBTQ+","LGBTQ+","Cishet","LGBTQ+","true",""
"","iat","625","j","144","158123","Nonbinary","LGBTQ+","LGBTQ+","Cishet","LGBTQ+","true",""
"","iat","536","j","146","158912","Pansexual","LGBTQ+","LGBTQ+","Cishet","LGBTQ+","true",""
"","iat","1164","j","148","160330","Diversity","LGBTQ+","LGBTQ+","Cishet","LGBTQ+","true",""
"","iat","8316","j","151","176973","Hetero","Cishet","Mental illness or Cishet","Physical illness or LGBTQ+","Mental illness or Cishet","true",""
"","iat","5105","j","153","182332","Autism","Mental illness","Mental illness or Cishet","Physical illness or LGBTQ+","Mental illness or Cishet","true",""
"","iat","3732","j","155","186319","Bipolar Disorder","Mental illness","Mental illness or Cishet","Physical illness or LGBTQ+","Mental illness or Cishet","true",""
"","iat","2037","f","157","188609","Nonbinary","LGBTQ+","Physical illness or LGBTQ+","Physical illness or LGBTQ+","Mental illness or Cishet","true",""
"","iat","1341","f","159","190205","Meningitis","Physical illness","Physical illness or LGBTQ+","Physical illness or LGBTQ+","Mental illness or Cishet","true",""
"","iat","1237","f","161","191696","Genderqueer","LGBTQ+","Physical illness or LGBTQ+","Physical illness or LGBTQ+","Mental illness or Cishet","true",""
"","iat","3929","f","163","195880","Diabetes","Physical illness","Physical illness or LGBTQ+","Physical illness or LGBTQ+","Mental illness or Cishet","true",""
"","iat","5359","j","165","201494","Anorexia","Mental illness","Mental illness or Cishet","Physical illness or LGBTQ+","Mental illness or Cishet","true",""
"","iat","973","j","167","202720","Schizophrenia","Mental illness","Mental illness or Cishet","Physical illness or LGBTQ+","Mental illness or Cishet","true",""
"","iat","7901","j","169","210875","Usual","Cishet","Mental illness or Cishet","Physical illness or LGBTQ+","Mental illness or Cishet","true",""
"","iat","1218","j","171","212346","Cisgendered","Cishet","Mental illness or Cishet","Physical illness or LGBTQ+","Mental illness or Cishet","true",""
"","iat","1044","f","173","213644","Transgender","LGBTQ+","Physical illness or LGBTQ+","Physical illness or LGBTQ+","Mental illness or Cishet","true",""
"","iat","833","j","175","214731","Traditional","Cishet","Mental illness or Cishet","Physical illness or LGBTQ+","Mental illness or Cishet","true",""
"","iat","2029","f","177","217014","Fluidity","LGBTQ+","Physical illness or LGBTQ+","Physical illness or LGBTQ+","Mental illness or Cishet","true",""
"","iat","1514","f","179","218782","Bisexual","LGBTQ+","Physical illness or LGBTQ+","Physical illness or LGBTQ+","Mental illness or Cishet","true",""
"","iat","1233","j","181","220269","PTSD","Mental illness","Mental illness or Cishet","Physical illness or LGBTQ+","Mental illness or Cishet","true",""
"","iat","3571","f","183","224094","Biological","Cishet","Mental illness or Cishet","Physical illness or LGBTQ+","Mental illness or Cishet","false",""
"","iat","6759","f","185","231108","Pneumonia","Physical illness","Physical illness or LGBTQ+","Physical illness or LGBTQ+","Mental illness or Cishet","true",""
"","iat","726","f","187","232089","Influenza","Physical illness","Physical illness or LGBTQ+","Physical illness or LGBTQ+","Mental illness or Cishet","true",""
"","iat","853","f","189","233197","Queerness","LGBTQ+","Physical illness or LGBTQ+","Physical illness or LGBTQ+","Mental illness or Cishet","true",""
"","iat","840","j","191","234291","Heteronormative","Cishet","Mental illness or Cishet","Physical illness or LGBTQ+","Mental illness or Cishet","true",""
"","iat","902","j","193","235447","Conformity","Cishet","Mental illness or Cishet","Physical illness or LGBTQ+","Mental illness or Cishet","true",""
"","iat","964","f","195","236667","Androgynous","LGBTQ+","Physical illness or LGBTQ+","Physical illness or LGBTQ+","Mental illness or Cishet","true",""
"","iat","1691","f","197","238612","Epilepsy","Physical illness","Physical illness or LGBTQ+","Physical illness or LGBTQ+","Mental illness or Cishet","true",""
"","iat","1183","f","199","240049","Pansexual","LGBTQ+","Physical illness or LGBTQ+","Physical illness or LGBTQ+","Mental illness or Cishet","true",""
"","iat","1272","f","201","241576","Asthma","Physical illness","Physical illness or LGBTQ+","Physical illness or LGBTQ+","Mental illness or Cishet","true",""
"","iat","1702","j","203","243532","OCD","Mental illness","Mental illness or Cishet","Physical illness or LGBTQ+","Mental illness or Cishet","true",""
"","iat","644","j","205","244431","Psychosis","Mental illness","Mental illness or Cishet","Physical illness or LGBTQ+","Mental illness or Cishet","true",""
"","iat","919","f","207","245605","Inclusivity","LGBTQ+","Physical illness or LGBTQ+","Physical illness or LGBTQ+","Mental illness or Cishet","true",""
"","iat","1605","j","209","247464","Depression","Mental illness","Mental illness or Cishet","Physical illness or LGBTQ+","Mental illness or Cishet","true",""
"","iat","1056","f","211","248774","Leukemia","Physical illness","Physical illness or LGBTQ+","Physical illness or LGBTQ+","Mental illness or Cishet","true",""
"","iat","1024","j","213","250053","Panic Disorder","Mental illness","Mental illness or Cishet","Physical illness or LGBTQ+","Mental illness or Cishet","true",""
"","iat","1003","j","215","251309","Straight","Cishet","Mental illness or Cishet","Physical illness or LGBTQ+","Mental illness or Cishet","true",""
"","iat","1915","f","217","253479","Diversity","LGBTQ+","Physical illness or LGBTQ+","Physical illness or LGBTQ+","Mental illness or Cishet","true",""
"","iat","1912","j","219","255646","Cissexual","Cishet","Mental illness or Cishet","Physical illness or LGBTQ+","Mental illness or Cishet","true",""
"","iat","1669","f","221","257569","Arthritis","Physical illness","Physical illness or LGBTQ+","Physical illness or LGBTQ+","Mental illness or Cishet","true",""
"","iat","6707","j","224","267951","Anorexia","Mental illness","Mental illness or LGBTQ+","Physical illness or Cishet","Mental illness or LGBTQ+","true",""
"","iat","2084","f","226","270288","Diabetes","Physical illness","Physical illness or Cishet","Physical illness or Cishet","Mental illness or LGBTQ+","true",""
"","iat","5138","f","228","275681","Pneumonia","Physical illness","Physical illness or Cishet","Physical illness or Cishet","Mental illness or LGBTQ+","true",""
"","iat","1783","f","230","277718","Conformity","Cishet","Physical illness or Cishet","Physical illness or Cishet","Mental illness or LGBTQ+","true",""
"","iat","3965","j","232","281938","Nonbinary","LGBTQ+","Mental illness or LGBTQ+","Physical illness or Cishet","Mental illness or LGBTQ+","true",""
"","iat","1266","j","234","283458","Autism","Mental illness","Mental illness or LGBTQ+","Physical illness or Cishet","Mental illness or LGBTQ+","true",""
"","iat","1840","j","236","285553","OCD","Mental illness","Mental illness or LGBTQ+","Physical illness or Cishet","Mental illness or LGBTQ+","true",""
"","iat","4369","f","238","290176","Biological","Cishet","Physical illness or Cishet","Physical illness or Cishet","Mental illness or LGBTQ+","true",""
"","iat","8025","j","240","298456","Queerness","LGBTQ+","Mental illness or LGBTQ+","Physical illness or Cishet","Mental illness or LGBTQ+","true",""
"","iat","1273","f","242","299983","Traditional","Cishet","Physical illness or Cishet","Physical illness or Cishet","Mental illness or LGBTQ+","true",""
"","iat","2473","f","244","302709","Migraine","Physical illness","Physical illness or Cishet","Physical illness or Cishet","Mental illness or LGBTQ+","true",""
"","iat","2600","f","246","305563","Heterosexual","Cishet","Physical illness or Cishet","Physical illness or Cishet","Mental illness or LGBTQ+","true",""
"","iat","1185","f","248","307003","Common Cold","Physical illness","Physical illness or Cishet","Physical illness or Cishet","Mental illness or LGBTQ+","true",""
"","iat","1858","f","250","309115","Cissexual","Cishet","Physical illness or Cishet","Physical illness or Cishet","Mental illness or LGBTQ+","true",""
"","iat","1190","j","252","310560","Transgender","LGBTQ+","Mental illness or LGBTQ+","Physical illness or Cishet","Mental illness or LGBTQ+","true",""
"","iat","1317","f","254","312131","Straight","Cishet","Physical illness or Cishet","Physical illness or Cishet","Mental illness or LGBTQ+","true",""
"","iat","1447","f","256","313832","Leukemia","Physical illness","Physical illness or Cishet","Physical illness or Cishet","Mental illness or LGBTQ+","true",""
"","iat","1317","f","258","315403","Usual","Cishet","Physical illness or Cishet","Physical illness or Cishet","Mental illness or LGBTQ+","true",""
"","iat","1897","j","260","317555","Panic Disorder","Mental illness","Mental illness or LGBTQ+","Physical illness or Cishet","Mental illness or LGBTQ+","true",""
"","iat","733","j","262","318542","Pansexual","LGBTQ+","Mental illness or LGBTQ+","Physical illness or Cishet","Mental illness or LGBTQ+","true",""
"","iat","2076","f","264","320872","Asthma","Physical illness","Physical illness or Cishet","Physical illness or Cishet","Mental illness or LGBTQ+","true",""
"","iat","1203","j","266","322330","Androgynous","LGBTQ+","Mental illness or LGBTQ+","Physical illness or Cishet","Mental illness or LGBTQ+","true",""
"","iat","1040","j","268","323625","Inclusivity","LGBTQ+","Mental illness or LGBTQ+","Physical illness or Cishet","Mental illness or LGBTQ+","true",""
"","iat","2156","f","270","326035","Heteronormative","Cishet","Physical illness or Cishet","Physical illness or Cishet","Mental illness or LGBTQ+","true",""
"","iat","3584","j","272","329874","Anxiety","Mental illness","Mental illness or LGBTQ+","Physical illness or Cishet","Mental illness or LGBTQ+","true",""
"","iat","1653","f","274","331781","Arthritis","Physical illness","Physical illness or Cishet","Physical illness or Cishet","Mental illness or LGBTQ+","true",""
"","iat","687","j","276","332721","Genderqueer","LGBTQ+","Mental illness or LGBTQ+","Physical illness or Cishet","Mental illness or LGBTQ+","true",""
"","iat","1287","f","278","334262","Cisgendered","Cishet","Physical illness or Cishet","Physical illness or Cishet","Mental illness or LGBTQ+","true",""
"","iat","947","j","280","335463","Diversity","LGBTQ+","Mental illness or LGBTQ+","Physical illness or Cishet","Mental illness or LGBTQ+","true",""
"","iat","2699","f","282","338416","Meningitis","Physical illness","Physical illness or Cishet","Physical illness or Cishet","Mental illness or LGBTQ+","true",""
"","iat","714","j","284","339385","Fluidity","LGBTQ+","Mental illness or LGBTQ+","Physical illness or Cishet","Mental illness or LGBTQ+","true",""
"","iat","904","j","286","340544","PTSD","Mental illness","Mental illness or LGBTQ+","Physical illness or Cishet","Mental illness or LGBTQ+","true",""
"","iat","663","j","288","341461","Bipolar Disorder","Mental illness","Mental illness or LGBTQ+","Physical illness or Cishet","Mental illness or LGBTQ+","true",""
"","iat","1902","f","290","343617","Epilepsy","Physical illness","Physical illness or Cishet","Physical illness or Cishet","Mental illness or LGBTQ+","true",""
"","iat","572","j","292","344444","Bisexual","LGBTQ+","Mental illness or LGBTQ+","Physical illness or Cishet","Mental illness or LGBTQ+","true",""
"","iat","1776","j","294","346474","Psychosis","Mental illness","Mental illness or LGBTQ+","Physical illness or Cishet","Mental illness or LGBTQ+","true",""
"","Questionnaire","112132","{""question1"":0,""question2"":0,""question3"":0,""question4"":0,""question5"":4,""question6"":4,""question7"":4,""question8"":0,""question9"":0,""question10"":4,""question11"":0,""question12"":4,""question13"":4,""question14"":4,""question15"":0}","296","458868","","","","","","","[0,1,2,3,4,5,6,7,8,9,10,11,12,13,14]"
