"whichPrime","trialType","rt","response","trial_index","time_elapsed","word","expectedCategory","expectedCategoryAsDisplayed","leftCategory","rightCategory","correct","question_order"
"Queer","prime","11520"," ","2","26847","","","","","","",""
"","iat","1452","f","5","38025","Nonbinary","LGBTQ+","LGBTQ+","LGBTQ+","Cishet","true",""
"","iat","2568","f","7","40852","Diversity","LGBTQ+","LGBTQ+","LGBTQ+","Cishet","true",""
"","iat","806","f","9","41917","Transgender","LGBTQ+","LGBTQ+","LGBTQ+","Cishet","true",""
"","iat","660","f","11","42837","Queerness","LGBTQ+","LGBTQ+","LGBTQ+","Cishet","true",""
"","iat","2166","f","13","45260","Heteronormative","Cishet","Cishet","LGBTQ+","Cishet","false",""
"","iat","869","j","15","46381","Straight","Cishet","Cishet","LGBTQ+","Cishet","true",""
"","iat","887","j","17","47523","Heterosexual","Cishet","Cishet","LGBTQ+","Cishet","true",""
"","iat","1151","f","19","48940","Fluidity","LGBTQ+","LGBTQ+","LGBTQ+","Cishet","true",""
"","iat","972","j","21","50167","Cisgendered","Cishet","Cishet","LGBTQ+","Cishet","true",""
"","iat","671","f","23","51103","Bisexual","LGBTQ+","LGBTQ+","LGBTQ+","Cishet","true",""
"","iat","950","j","25","52322","Cisgendered","Cishet","Cishet","LGBTQ+","Cishet","true",""
"","iat","1419","f","27","53996","Diversity","LGBTQ+","LGBTQ+","LGBTQ+","Cishet","true",""
"","iat","2419","j","29","56681","Conformity","Cishet","Cishet","LGBTQ+","Cishet","true",""
"","iat","770","j","31","57717","Traditional","Cishet","Cishet","LGBTQ+","Cishet","true",""
"","iat","792","j","33","58773","Cissexual","Cishet","Cishet","LGBTQ+","Cishet","true",""
"","iat","671","j","35","59701","Hetero","Cishet","Cishet","LGBTQ+","Cishet","true",""
"","iat","1495","j","37","61447","Usual","Cishet","Cishet","LGBTQ+","Cishet","true",""
"","iat","1042","f","39","62748","Transgender","LGBTQ+","LGBTQ+","LGBTQ+","Cishet","true",""
"","iat","695","f","41","63708","Nonbinary","LGBTQ+","LGBTQ+","LGBTQ+","Cishet","true",""
"","iat","974","j","43","64939","Usual","Cishet","Cishet","LGBTQ+","Cishet","true",""
"","iat","932","f","45","66122","Pansexual","LGBTQ+","LGBTQ+","LGBTQ+","Cishet","true",""
"","iat","2202","f","47","68583","Biological","Cishet","Cishet","LGBTQ+","Cishet","false",""
"","iat","1472","j","49","70310","Traditional","Cishet","Cishet","LGBTQ+","Cishet","true",""
"","iat","934","f","51","71506","Androgynous","LGBTQ+","LGBTQ+","LGBTQ+","Cishet","true",""
"","iat","625","f","53","72388","Genderqueer","LGBTQ+","LGBTQ+","LGBTQ+","Cishet","true",""
"","iat","666","j","55","73313","Straight","Cishet","Cishet","LGBTQ+","Cishet","true",""
"","iat","1159","f","57","74739","Inclusivity","LGBTQ+","LGBTQ+","LGBTQ+","Cishet","true",""
"","iat","1010","j","59","76011","Hetero","Cishet","Cishet","LGBTQ+","Cishet","true",""
"","iat","663","f","61","76942","Fluidity","LGBTQ+","LGBTQ+","LGBTQ+","Cishet","true",""
"","iat","870","f","63","78073","Queerness","LGBTQ+","LGBTQ+","LGBTQ+","Cishet","true",""
"","iat","653","f","65","78992","Genderqueer","LGBTQ+","LGBTQ+","LGBTQ+","Cishet","true",""
"","iat","796","f","67","80040","Cissexual","Cishet","Cishet","LGBTQ+","Cishet","false",""
"","iat","3013","j","69","83307","Conformity","Cishet","Cishet","LGBTQ+","Cishet","true",""
"","iat","1925","j","71","85494","Heteronormative","Cishet","Cishet","LGBTQ+","Cishet","true",""
"","iat","989","f","73","86747","Androgynous","LGBTQ+","LGBTQ+","LGBTQ+","Cishet","true",""
"","iat","617","f","75","87621","Bisexual","LGBTQ+","LGBTQ+","LGBTQ+","Cishet","true",""
"","iat","1139","f","78","90919","Autism","Mental illness","Mental illness","Mental illness","Physical illness","true",""
"","iat","980","f","80","92158","Epilepsy","Physical illness","Physical illness","Mental illness","Physical illness","false",""
"","iat","839","j","82","93264","Common Cold","Physical illness","Physical illness","Mental illness","Physical illness","true",""
"","iat","1022","f","84","94552","Depression","Mental illness","Mental illness","Mental illness","Physical illness","true",""
"","iat","728","j","86","95542","Asthma","Physical illness","Physical illness","Mental illness","Physical illness","true",""
"","iat","823","j","88","96622","Migraine","Physical illness","Physical illness","Mental illness","Physical illness","true",""
"","iat","841","j","90","97716","Arthritis","Physical illness","Physical illness","Mental illness","Physical illness","true",""
"","iat","1857","j","92","99836","Asthma","Physical illness","Physical illness","Mental illness","Physical illness","true",""
"","iat","603","j","94","100696","Diabetes","Physical illness","Physical illness","Mental illness","Physical illness","true",""
"","iat","1004","f","96","101955","Anorexia","Mental illness","Mental illness","Mental illness","Physical illness","true",""
"","iat","755","j","98","102969","Arthritis","Physical illness","Physical illness","Mental illness","Physical illness","true",""
"","iat","1796","f","100","105022","Anxiety","Mental illness","Mental illness","Mental illness","Physical illness","true",""
"","iat","961","j","102","106244","Epilepsy","Physical illness","Physical illness","Mental illness","Physical illness","true",""
"","iat","2342","j","104","108848","Diabetes","Physical illness","Physical illness","Mental illness","Physical illness","true",""
"","iat","671","f","106","109776","Anxiety","Mental illness","Mental illness","Mental illness","Physical illness","true",""
"","iat","748","j","108","110787","Meningitis","Physical illness","Physical illness","Mental illness","Physical illness","true",""
"","iat","553","j","110","111607","Leukemia","Physical illness","Physical illness","Mental illness","Physical illness","true",""
"","iat","601","j","112","112467","Influenza","Physical illness","Physical illness","Mental illness","Physical illness","true",""
"","iat","742","f","114","113465","Autism","Mental illness","Mental illness","Mental illness","Physical illness","true",""
"","iat","981","f","116","114700","Schizophrenia","Mental illness","Mental illness","Mental illness","Physical illness","true",""
"","iat","646","f","118","115600","PTSD","Mental illness","Mental illness","Mental illness","Physical illness","true",""
"","iat","812","j","120","116676","Influenza","Physical illness","Physical illness","Mental illness","Physical illness","true",""
"","iat","680","f","122","117620","Bipolar Disorder","Mental illness","Mental illness","Mental illness","Physical illness","true",""
"","iat","919","f","124","118796","PTSD","Mental illness","Mental illness","Mental illness","Physical illness","true",""
"","iat","891","f","126","119954","Anorexia","Mental illness","Mental illness","Mental illness","Physical illness","true",""
"","iat","588","f","128","120806","OCD","Mental illness","Mental illness","Mental illness","Physical illness","true",""
"","iat","660","j","130","121733","Pneumonia","Physical illness","Physical illness","Mental illness","Physical illness","true",""
"","iat","682","f","132","122675","Panic Disorder","Mental illness","Mental illness","Mental illness","Physical illness","true",""
"","iat","710","f","134","123643","Depression","Mental illness","Mental illness","Mental illness","Physical illness","true",""
"","iat","613","f","136","124512","Bipolar Disorder","Mental illness","Mental illness","Mental illness","Physical illness","true",""
"","iat","731","f","138","125506","Pneumonia","Physical illness","Physical illness","Mental illness","Physical illness","false",""
"","iat","863","f","140","126637","Psychosis","Mental illness","Mental illness","Mental illness","Physical illness","true",""
"","iat","910","j","142","127812","Migraine","Physical illness","Physical illness","Mental illness","Physical illness","true",""
"","iat","688","f","144","128764","Schizophrenia","Mental illness","Mental illness","Mental illness","Physical illness","true",""
"","iat","2984","f","146","132015","Psychosis","Mental illness","Mental illness","Mental illness","Physical illness","true",""
"","iat","611","j","148","132888","Common Cold","Physical illness","Physical illness","Mental illness","Physical illness","true",""
"","iat","3063","f","151","141892","Androgynous","LGBTQ+","Physical illness or LGBTQ+","Physical illness or LGBTQ+","Mental illness or Cishet","true",""
"","iat","936","f","153","143087","Panic Disorder","Mental illness","Mental illness or Cishet","Physical illness or LGBTQ+","Mental illness or Cishet","false",""
"","iat","3610","j","155","146964","Usual","Cishet","Mental illness or Cishet","Physical illness or LGBTQ+","Mental illness or Cishet","true",""
"","iat","1044","f","157","148263","Migraine","Physical illness","Physical illness or LGBTQ+","Physical illness or LGBTQ+","Mental illness or Cishet","true",""
"","iat","2088","j","159","150618","Hetero","Cishet","Mental illness or Cishet","Physical illness or LGBTQ+","Mental illness or Cishet","true",""
"","iat","1535","f","161","152421","Arthritis","Physical illness","Physical illness or LGBTQ+","Physical illness or LGBTQ+","Mental illness or Cishet","true",""
"","iat","1229","j","163","153908","Conformity","Cishet","Mental illness or Cishet","Physical illness or LGBTQ+","Mental illness or Cishet","true",""
"","iat","1343","f","165","155516","Influenza","Physical illness","Physical illness or LGBTQ+","Physical illness or LGBTQ+","Mental illness or Cishet","true",""
"","iat","722","f","167","156500","Leukemia","Physical illness","Physical illness or LGBTQ+","Physical illness or LGBTQ+","Mental illness or Cishet","true",""
"","iat","985","j","169","157746","Heteronormative","Cishet","Mental illness or Cishet","Physical illness or LGBTQ+","Mental illness or Cishet","true",""
"","iat","1204","f","171","159213","Diabetes","Physical illness","Physical illness or LGBTQ+","Physical illness or LGBTQ+","Mental illness or Cishet","true",""
"","iat","868","j","173","160337","Cisgendered","Cishet","Mental illness or Cishet","Physical illness or LGBTQ+","Mental illness or Cishet","true",""
"","iat","885","f","175","161477","Asthma","Physical illness","Physical illness or LGBTQ+","Physical illness or LGBTQ+","Mental illness or Cishet","true",""
"","iat","814","f","177","162545","Pneumonia","Physical illness","Physical illness or LGBTQ+","Physical illness or LGBTQ+","Mental illness or Cishet","true",""
"","iat","1272","f","179","164075","Transgender","LGBTQ+","Physical illness or LGBTQ+","Physical illness or LGBTQ+","Mental illness or Cishet","true",""
"","iat","917","f","181","165248","Inclusivity","LGBTQ+","Physical illness or LGBTQ+","Physical illness or LGBTQ+","Mental illness or Cishet","true",""
"","iat","868","f","183","166369","Nonbinary","LGBTQ+","Physical illness or LGBTQ+","Physical illness or LGBTQ+","Mental illness or Cishet","true",""
"","iat","768","j","185","167393","Heterosexual","Cishet","Mental illness or Cishet","Physical illness or LGBTQ+","Mental illness or Cishet","true",""
"","iat","939","j","187","168592","Traditional","Cishet","Mental illness or Cishet","Physical illness or LGBTQ+","Mental illness or Cishet","true",""
"","iat","3361","j","189","172213","Biological","Cishet","Mental illness or Cishet","Physical illness or LGBTQ+","Mental illness or Cishet","true",""
"","iat","583","j","191","173059","Cissexual","Cishet","Mental illness or Cishet","Physical illness or LGBTQ+","Mental illness or Cishet","true",""
"","iat","834","f","193","174155","Diversity","LGBTQ+","Physical illness or LGBTQ+","Physical illness or LGBTQ+","Mental illness or Cishet","true",""
"","iat","671","f","195","175083","Genderqueer","LGBTQ+","Physical illness or LGBTQ+","Physical illness or LGBTQ+","Mental illness or Cishet","true",""
"","iat","923","j","197","176272","Schizophrenia","Mental illness","Mental illness or Cishet","Physical illness or LGBTQ+","Mental illness or Cishet","true",""
"","iat","840","j","199","177380","Psychosis","Mental illness","Mental illness or Cishet","Physical illness or LGBTQ+","Mental illness or Cishet","true",""
"","iat","1087","f","201","178734","Common Cold","Physical illness","Physical illness or LGBTQ+","Physical illness or LGBTQ+","Mental illness or Cishet","true",""
"","iat","1082","j","203","180070","Autism","Mental illness","Mental illness or Cishet","Physical illness or LGBTQ+","Mental illness or Cishet","true",""
"","iat","1616","j","205","181951","Bipolar Disorder","Mental illness","Mental illness or Cishet","Physical illness or LGBTQ+","Mental illness or Cishet","true",""
"","iat","1102","f","207","183314","Bisexual","LGBTQ+","Physical illness or LGBTQ+","Physical illness or LGBTQ+","Mental illness or Cishet","true",""
"","iat","792","f","209","184359","Pansexual","LGBTQ+","Physical illness or LGBTQ+","Physical illness or LGBTQ+","Mental illness or Cishet","true",""
"","iat","931","j","211","185544","OCD","Mental illness","Mental illness or Cishet","Physical illness or LGBTQ+","Mental illness or Cishet","true",""
"","iat","1050","j","213","186852","Depression","Mental illness","Mental illness or Cishet","Physical illness or LGBTQ+","Mental illness or Cishet","true",""
"","iat","811","j","215","187923","Straight","Cishet","Mental illness or Cishet","Physical illness or LGBTQ+","Mental illness or Cishet","true",""
"","iat","1202","j","217","189392","Anorexia","Mental illness","Mental illness or Cishet","Physical illness or LGBTQ+","Mental illness or Cishet","true",""
"","iat","896","j","219","190545","Fluidity","LGBTQ+","Physical illness or LGBTQ+","Physical illness or LGBTQ+","Mental illness or Cishet","false",""
"","iat","5228","j","221","196033","Epilepsy","Physical illness","Physical illness or LGBTQ+","Physical illness or LGBTQ+","Mental illness or Cishet","false",""
"","iat","2701","f","224","201174","Transgender","LGBTQ+","Mental illness or LGBTQ+","Mental illness or LGBTQ+","Physical illness or Cishet","true",""
"","iat","2253","f","226","203686","Diversity","LGBTQ+","Mental illness or LGBTQ+","Mental illness or LGBTQ+","Physical illness or Cishet","true",""
"","iat","1111","f","228","205063","Pansexual","LGBTQ+","Mental illness or LGBTQ+","Mental illness or LGBTQ+","Physical illness or Cishet","true",""
"","iat","725","j","230","206051","Straight","Cishet","Physical illness or Cishet","Mental illness or LGBTQ+","Physical illness or Cishet","true",""
"","iat","727","j","232","207033","Cisgendered","Cishet","Physical illness or Cishet","Mental illness or LGBTQ+","Physical illness or Cishet","true",""
"","iat","950","f","234","208246","Genderqueer","LGBTQ+","Mental illness or LGBTQ+","Mental illness or LGBTQ+","Physical illness or Cishet","true",""
"","iat","917","j","236","209429","Usual","Cishet","Physical illness or Cishet","Mental illness or LGBTQ+","Physical illness or Cishet","true",""
"","iat","930","j","238","210626","Influenza","Physical illness","Physical illness or Cishet","Mental illness or LGBTQ+","Physical illness or Cishet","true",""
"","iat","3010","f","240","213892","Heteronormative","Cishet","Physical illness or Cishet","Mental illness or LGBTQ+","Physical illness or Cishet","false",""
"","iat","1923","j","242","216071","Epilepsy","Physical illness","Physical illness or Cishet","Mental illness or LGBTQ+","Physical illness or Cishet","true",""
"","iat","2580","j","244","218910","Common Cold","Physical illness","Physical illness or Cishet","Mental illness or LGBTQ+","Physical illness or Cishet","true",""
"","iat","871","f","246","220043","Fluidity","LGBTQ+","Mental illness or LGBTQ+","Mental illness or LGBTQ+","Physical illness or Cishet","true",""
"","iat","894","f","248","221202","PTSD","Mental illness","Mental illness or LGBTQ+","Mental illness or LGBTQ+","Physical illness or Cishet","true",""
"","iat","2224","j","250","223685","Conformity","Cishet","Physical illness or Cishet","Mental illness or LGBTQ+","Physical illness or Cishet","true",""
"","iat","1384","f","252","225331","Autism","Mental illness","Mental illness or LGBTQ+","Mental illness or LGBTQ+","Physical illness or Cishet","true",""
"","iat","830","f","254","226419","Psychosis","Mental illness","Mental illness or LGBTQ+","Mental illness or LGBTQ+","Physical illness or Cishet","true",""
"","iat","938","f","256","227623","Inclusivity","LGBTQ+","Mental illness or LGBTQ+","Mental illness or LGBTQ+","Physical illness or Cishet","true",""
"","iat","914","f","258","228799","Schizophrenia","Mental illness","Mental illness or LGBTQ+","Mental illness or LGBTQ+","Physical illness or Cishet","true",""
"","iat","1382","j","260","230444","Biological","Cishet","Physical illness or Cishet","Mental illness or LGBTQ+","Physical illness or Cishet","true",""
"","iat","1713","j","262","232413","Heterosexual","Cishet","Physical illness or Cishet","Mental illness or LGBTQ+","Physical illness or Cishet","true",""
"","iat","811","j","264","233491","Arthritis","Physical illness","Physical illness or Cishet","Mental illness or LGBTQ+","Physical illness or Cishet","true",""
"","iat","568","j","266","234324","Leukemia","Physical illness","Physical illness or Cishet","Mental illness or LGBTQ+","Physical illness or Cishet","true",""
"","iat","662","f","268","235245","Queerness","LGBTQ+","Mental illness or LGBTQ+","Mental illness or LGBTQ+","Physical illness or Cishet","true",""
"","iat","589","f","270","236091","Bisexual","LGBTQ+","Mental illness or LGBTQ+","Mental illness or LGBTQ+","Physical illness or Cishet","true",""
"","iat","503","f","272","236849","Cissexual","Cishet","Physical illness or Cishet","Mental illness or LGBTQ+","Physical illness or Cishet","false",""
"","iat","1860","f","274","238967","OCD","Mental illness","Mental illness or LGBTQ+","Mental illness or LGBTQ+","Physical illness or Cishet","true",""
"","iat","707","j","276","239934","Migraine","Physical illness","Physical illness or Cishet","Mental illness or LGBTQ+","Physical illness or Cishet","true",""
"","iat","963","j","278","241163","Asthma","Physical illness","Physical illness or Cishet","Mental illness or LGBTQ+","Physical illness or Cishet","true",""
"","iat","1046","f","280","242466","Depression","Mental illness","Mental illness or LGBTQ+","Mental illness or LGBTQ+","Physical illness or Cishet","true",""
"","iat","818","f","282","243548","Anxiety","Mental illness","Mental illness or LGBTQ+","Mental illness or LGBTQ+","Physical illness or Cishet","true",""
"","iat","738","j","284","244541","Meningitis","Physical illness","Physical illness or Cishet","Mental illness or LGBTQ+","Physical illness or Cishet","true",""
"","iat","677","j","286","245477","Pneumonia","Physical illness","Physical illness or Cishet","Mental illness or LGBTQ+","Physical illness or Cishet","true",""
"","iat","1090","f","288","246828","Bipolar Disorder","Mental illness","Mental illness or LGBTQ+","Mental illness or LGBTQ+","Physical illness or Cishet","true",""
"","iat","730","j","290","247826","Diabetes","Physical illness","Physical illness or Cishet","Mental illness or LGBTQ+","Physical illness or Cishet","true",""
"","iat","837","j","292","248917","Anorexia","Mental illness","Mental illness or LGBTQ+","Mental illness or LGBTQ+","Physical illness or Cishet","false",""
"","iat","1016","f","294","250188","Panic Disorder","Mental illness","Mental illness or LGBTQ+","Mental illness or LGBTQ+","Physical illness or Cishet","true",""
"","Questionnaire","55567","{""question1"":1,""question2"":0,""question3"":0,""question4"":0,""question5"":4,""question6"":4,""question7"":4,""question8"":0,""question9"":0,""question10"":4,""question11"":0,""question12"":3,""question13"":4,""question14"":4,""question15"":0}","296","306019","","","","","","","[0,1,2,3,4,5,6,7,8,9,10,11,12,13,14]"
