"whichPrime","trialType","rt","response","trial_index","time_elapsed","word","expectedCategory","expectedCategoryAsDisplayed","leftCategory","rightCategory","correct","question_order"
"Queer","prime","56410"," ","1","64432","","","","","","",""
"","iat","3878","j","4","145274","Nonbinary","LGBTQ+","LGBTQ+","Cishet","LGBTQ+","true",""
"","iat","2003","j","6","147534","Androgynous","LGBTQ+","LGBTQ+","Cishet","LGBTQ+","true",""
"","iat","2062","f","8","149850","Heteronormative","Cishet","Cishet","Cishet","LGBTQ+","true",""
"","iat","2291","j","10","152397","Inclusivity","LGBTQ+","LGBTQ+","Cishet","LGBTQ+","true",""
"","iat","1974","j","12","154626","Androgynous","LGBTQ+","LGBTQ+","Cishet","LGBTQ+","true",""
"","iat","1279","f","14","156158","Cissexual","Cishet","Cishet","Cishet","LGBTQ+","true",""
"","iat","972","f","16","157384","Hetero","Cishet","Cishet","Cishet","LGBTQ+","true",""
"","iat","856","f","18","158493","Straight","Cishet","Cishet","Cishet","LGBTQ+","true",""
"","iat","2319","j","20","161067","Bisexual","LGBTQ+","LGBTQ+","Cishet","LGBTQ+","true",""
"","iat","790","f","22","162111","Hetero","Cishet","Cishet","Cishet","LGBTQ+","true",""
"","iat","1026","f","24","163391","Biological","Cishet","Cishet","Cishet","LGBTQ+","true",""
"","iat","822","j","26","164466","Pansexual","LGBTQ+","LGBTQ+","Cishet","LGBTQ+","true",""
"","iat","1070","f","28","165791","Cisgendered","Cishet","Cishet","Cishet","LGBTQ+","true",""
"","iat","705","j","30","166750","Queerness","LGBTQ+","LGBTQ+","Cishet","LGBTQ+","true",""
"","iat","913","f","32","167916","Cisgendered","Cishet","Cishet","Cishet","LGBTQ+","true",""
"","iat","858","j","34","169028","Diversity","LGBTQ+","LGBTQ+","Cishet","LGBTQ+","true",""
"","iat","1087","f","36","170369","Usual","Cishet","Cishet","Cishet","LGBTQ+","true",""
"","iat","938","j","38","171561","Transgender","LGBTQ+","LGBTQ+","Cishet","LGBTQ+","true",""
"","iat","718","f","40","172533","Conformity","Cishet","Cishet","Cishet","LGBTQ+","true",""
"","iat","513","f","42","173301","Straight","Cishet","Cishet","Cishet","LGBTQ+","true",""
"","iat","601","f","44","174156","Usual","Cishet","Cishet","Cishet","LGBTQ+","true",""
"","iat","565","j","46","174976","Queerness","LGBTQ+","LGBTQ+","Cishet","LGBTQ+","true",""
"","iat","632","f","48","175863","Heterosexual","Cishet","Cishet","Cishet","LGBTQ+","true",""
"","iat","613","j","50","176730","Nonbinary","LGBTQ+","LGBTQ+","Cishet","LGBTQ+","true",""
"","iat","872","j","52","177856","Fluidity","LGBTQ+","LGBTQ+","Cishet","LGBTQ+","true",""
"","iat","739","f","54","178849","Traditional","Cishet","Cishet","Cishet","LGBTQ+","true",""
"","iat","712","f","56","179814","Heteronormative","Cishet","Cishet","Cishet","LGBTQ+","true",""
"","iat","642","f","58","180709","Cissexual","Cishet","Cishet","Cishet","LGBTQ+","true",""
"","iat","566","j","60","181530","Pansexual","LGBTQ+","LGBTQ+","Cishet","LGBTQ+","true",""
"","iat","578","f","62","182362","Traditional","Cishet","Cishet","Cishet","LGBTQ+","true",""
"","iat","775","j","64","183392","Fluidity","LGBTQ+","LGBTQ+","Cishet","LGBTQ+","true",""
"","iat","774","j","66","184420","Diversity","LGBTQ+","LGBTQ+","Cishet","LGBTQ+","true",""
"","iat","555","j","68","185228","Genderqueer","LGBTQ+","LGBTQ+","Cishet","LGBTQ+","true",""
"","iat","681","f","70","186164","Biological","Cishet","Cishet","Cishet","LGBTQ+","true",""
"","iat","702","j","72","187118","Bisexual","LGBTQ+","LGBTQ+","Cishet","LGBTQ+","true",""
"","iat","738","j","74","188110","Transgender","LGBTQ+","LGBTQ+","Cishet","LGBTQ+","true",""
"","iat","1018","f","77","198789","Meningitis","Physical illness","Physical illness","Physical illness","Mental illness","true",""
"","iat","621","j","79","199665","Migraine","Physical illness","Physical illness","Physical illness","Mental illness","false",""
"","iat","715","j","81","200634","Panic Disorder","Mental illness","Mental illness","Physical illness","Mental illness","true",""
"","iat","1288","j","83","202176","Depression","Mental illness","Mental illness","Physical illness","Mental illness","true",""
"","iat","815","f","85","203246","Pneumonia","Physical illness","Physical illness","Physical illness","Mental illness","true",""
"","iat","789","f","87","204289","Meningitis","Physical illness","Physical illness","Physical illness","Mental illness","true",""
"","iat","810","j","89","205352","OCD","Mental illness","Mental illness","Physical illness","Mental illness","true",""
"","iat","651","f","91","206256","Arthritis","Physical illness","Physical illness","Physical illness","Mental illness","true",""
"","iat","953","f","93","207464","Autism","Mental illness","Mental illness","Physical illness","Mental illness","false",""
"","iat","808","j","95","208526","Bipolar Disorder","Mental illness","Mental illness","Physical illness","Mental illness","true",""
"","iat","667","j","97","209446","Psychosis","Mental illness","Mental illness","Physical illness","Mental illness","true",""
"","iat","516","j","99","210215","Schizophrenia","Mental illness","Mental illness","Physical illness","Mental illness","true",""
"","iat","624","f","101","211092","Leukemia","Physical illness","Physical illness","Physical illness","Mental illness","true",""
"","iat","572","j","103","211919","Depression","Mental illness","Mental illness","Physical illness","Mental illness","true",""
"","iat","746","f","105","212920","Common Cold","Physical illness","Physical illness","Physical illness","Mental illness","true",""
"","iat","852","j","107","214026","Anxiety","Mental illness","Mental illness","Physical illness","Mental illness","true",""
"","iat","1026","j","109","215307","Anorexia","Mental illness","Mental illness","Physical illness","Mental illness","true",""
"","iat","671","f","111","216232","Common Cold","Physical illness","Physical illness","Physical illness","Mental illness","true",""
"","iat","555","f","113","217041","Epilepsy","Physical illness","Physical illness","Physical illness","Mental illness","true",""
"","iat","767","f","115","218063","Autism","Mental illness","Mental illness","Physical illness","Mental illness","false",""
"","iat","738","f","117","219055","Influenza","Physical illness","Physical illness","Physical illness","Mental illness","true",""
"","iat","640","j","119","219948","Anorexia","Mental illness","Mental illness","Physical illness","Mental illness","true",""
"","iat","2209","f","121","222411","Diabetes","Physical illness","Physical illness","Physical illness","Mental illness","true",""
"","iat","632","j","123","223296","Schizophrenia","Mental illness","Mental illness","Physical illness","Mental illness","true",""
"","iat","984","j","125","224534","PTSD","Mental illness","Mental illness","Physical illness","Mental illness","true",""
"","iat","711","f","127","225499","Influenza","Physical illness","Physical illness","Physical illness","Mental illness","true",""
"","iat","701","f","129","226453","Leukemia","Physical illness","Physical illness","Physical illness","Mental illness","true",""
"","iat","1016","j","131","227723","PTSD","Mental illness","Mental illness","Physical illness","Mental illness","true",""
"","iat","785","j","133","228763","Anxiety","Mental illness","Mental illness","Physical illness","Mental illness","true",""
"","iat","504","f","135","229521","Epilepsy","Physical illness","Physical illness","Physical illness","Mental illness","true",""
"","iat","1177","j","137","230952","Bipolar Disorder","Mental illness","Mental illness","Physical illness","Mental illness","true",""
"","iat","786","j","139","231992","OCD","Mental illness","Mental illness","Physical illness","Mental illness","true",""
"","iat","769","f","141","233015","Diabetes","Physical illness","Physical illness","Physical illness","Mental illness","true",""
"","iat","725","f","143","233993","Asthma","Physical illness","Physical illness","Physical illness","Mental illness","true",""
"","iat","660","f","145","234908","Arthritis","Physical illness","Physical illness","Physical illness","Mental illness","true",""
"","iat","519","f","147","235681","Asthma","Physical illness","Physical illness","Physical illness","Mental illness","true",""
"","iat","1619","f","150","1806731","Conformity","Cishet","Mental illness or Cishet","Mental illness or Cishet","Physical illness or LGBTQ+","true",""
"","iat","1501","f","152","1808486","Panic Disorder","Mental illness","Mental illness or Cishet","Mental illness or Cishet","Physical illness or LGBTQ+","true",""
"","iat","1405","j","154","1810145","Queerness","LGBTQ+","Physical illness or LGBTQ+","Mental illness or Cishet","Physical illness or LGBTQ+","true",""
"","iat","1091","f","156","1811490","Cissexual","Cishet","Mental illness or Cishet","Mental illness or Cishet","Physical illness or LGBTQ+","true",""
"","iat","980","j","158","1812724","Nonbinary","LGBTQ+","Physical illness or LGBTQ+","Mental illness or Cishet","Physical illness or LGBTQ+","true",""
"","iat","928","j","160","1813906","Androgynous","LGBTQ+","Physical illness or LGBTQ+","Mental illness or Cishet","Physical illness or LGBTQ+","true",""
"","iat","1142","j","162","1815302","Diabetes","Physical illness","Physical illness or LGBTQ+","Mental illness or Cishet","Physical illness or LGBTQ+","true",""
"","iat","1646","j","164","1817201","Diversity","LGBTQ+","Physical illness or LGBTQ+","Mental illness or Cishet","Physical illness or LGBTQ+","true",""
"","iat","1073","j","166","1818527","OCD","Mental illness","Mental illness or Cishet","Mental illness or Cishet","Physical illness or LGBTQ+","false",""
"","iat","798","j","168","1819579","Transgender","LGBTQ+","Physical illness or LGBTQ+","Mental illness or Cishet","Physical illness or LGBTQ+","true",""
"","iat","1278","j","170","1821111","Pneumonia","Physical illness","Physical illness or LGBTQ+","Mental illness or Cishet","Physical illness or LGBTQ+","true",""
"","iat","1050","f","172","1822416","Cisgendered","Cishet","Mental illness or Cishet","Mental illness or Cishet","Physical illness or LGBTQ+","true",""
"","iat","974","j","174","1823643","Migraine","Physical illness","Physical illness or LGBTQ+","Mental illness or Cishet","Physical illness or LGBTQ+","true",""
"","iat","787","j","176","1824686","Influenza","Physical illness","Physical illness or LGBTQ+","Mental illness or Cishet","Physical illness or LGBTQ+","true",""
"","iat","758","j","178","1825696","Asthma","Physical illness","Physical illness or LGBTQ+","Mental illness or Cishet","Physical illness or LGBTQ+","true",""
"","iat","902","f","180","1826852","Anorexia","Mental illness","Mental illness or Cishet","Mental illness or Cishet","Physical illness or LGBTQ+","true",""
"","iat","958","j","182","1828063","Genderqueer","LGBTQ+","Physical illness or LGBTQ+","Mental illness or Cishet","Physical illness or LGBTQ+","true",""
"","iat","1084","f","184","1829401","Schizophrenia","Mental illness","Mental illness or Cishet","Mental illness or Cishet","Physical illness or LGBTQ+","true",""
"","iat","893","f","186","1830548","Bipolar Disorder","Mental illness","Mental illness or Cishet","Mental illness or Cishet","Physical illness or LGBTQ+","true",""
"","iat","930","j","188","1831731","Common Cold","Physical illness","Physical illness or LGBTQ+","Mental illness or Cishet","Physical illness or LGBTQ+","true",""
"","iat","1231","f","190","1833216","Biological","Cishet","Mental illness or Cishet","Mental illness or Cishet","Physical illness or LGBTQ+","true",""
"","iat","952","j","192","1834422","Meningitis","Physical illness","Physical illness or LGBTQ+","Mental illness or Cishet","Physical illness or LGBTQ+","true",""
"","iat","870","j","194","1835545","Fluidity","LGBTQ+","Physical illness or LGBTQ+","Mental illness or Cishet","Physical illness or LGBTQ+","true",""
"","iat","940","j","196","1836738","Autism","Mental illness","Mental illness or Cishet","Mental illness or Cishet","Physical illness or LGBTQ+","false",""
"","iat","1585","f","198","1838577","Psychosis","Mental illness","Mental illness or Cishet","Mental illness or Cishet","Physical illness or LGBTQ+","true",""
"","iat","955","j","200","1839786","Bisexual","LGBTQ+","Physical illness or LGBTQ+","Mental illness or Cishet","Physical illness or LGBTQ+","true",""
"","iat","823","j","202","1840862","Leukemia","Physical illness","Physical illness or LGBTQ+","Mental illness or Cishet","Physical illness or LGBTQ+","true",""
"","iat","814","f","204","1841929","PTSD","Mental illness","Mental illness or Cishet","Mental illness or Cishet","Physical illness or LGBTQ+","true",""
"","iat","1073","f","206","1843256","Usual","Cishet","Mental illness or Cishet","Mental illness or Cishet","Physical illness or LGBTQ+","true",""
"","iat","1003","j","208","1844513","Arthritis","Physical illness","Physical illness or LGBTQ+","Mental illness or Cishet","Physical illness or LGBTQ+","true",""
"","iat","1048","f","210","1845814","Heteronormative","Cishet","Mental illness or Cishet","Mental illness or Cishet","Physical illness or LGBTQ+","true",""
"","iat","999","j","212","1847067","Depression","Mental illness","Mental illness or Cishet","Mental illness or Cishet","Physical illness or LGBTQ+","false",""
"","iat","1376","f","214","1848699","Hetero","Cishet","Mental illness or Cishet","Mental illness or Cishet","Physical illness or LGBTQ+","true",""
"","iat","1004","j","216","1849956","Inclusivity","LGBTQ+","Physical illness or LGBTQ+","Mental illness or Cishet","Physical illness or LGBTQ+","true",""
"","iat","804","f","218","1851015","Heterosexual","Cishet","Mental illness or Cishet","Mental illness or Cishet","Physical illness or LGBTQ+","true",""
"","iat","601","f","220","1851870","Straight","Cishet","Mental illness or Cishet","Mental illness or Cishet","Physical illness or LGBTQ+","true",""
"","iat","1853","j","223","1857864","Heterosexual","Cishet","Physical illness or Cishet","Mental illness or LGBTQ+","Physical illness or Cishet","true",""
"","iat","678","j","225","1858796","Biological","Cishet","Physical illness or Cishet","Mental illness or LGBTQ+","Physical illness or Cishet","true",""
"","iat","592","j","227","1859642","Asthma","Physical illness","Physical illness or Cishet","Mental illness or LGBTQ+","Physical illness or Cishet","true",""
"","iat","612","j","229","1860509","Usual","Cishet","Physical illness or Cishet","Mental illness or LGBTQ+","Physical illness or Cishet","true",""
"","iat","685","f","231","1861448","Schizophrenia","Mental illness","Mental illness or LGBTQ+","Mental illness or LGBTQ+","Physical illness or Cishet","true",""
"","iat","612","f","233","1862315","Anorexia","Mental illness","Mental illness or LGBTQ+","Mental illness or LGBTQ+","Physical illness or Cishet","true",""
"","iat","941","j","235","1863509","Traditional","Cishet","Physical illness or Cishet","Mental illness or LGBTQ+","Physical illness or Cishet","true",""
"","iat","602","j","237","1864366","Influenza","Physical illness","Physical illness or Cishet","Mental illness or LGBTQ+","Physical illness or Cishet","true",""
"","iat","696","j","239","1865316","Conformity","Cishet","Physical illness or Cishet","Mental illness or LGBTQ+","Physical illness or Cishet","true",""
"","iat","1060","j","241","1866630","Diabetes","Physical illness","Physical illness or Cishet","Mental illness or LGBTQ+","Physical illness or Cishet","true",""
"","iat","700","j","243","1867584","Hetero","Cishet","Physical illness or Cishet","Mental illness or LGBTQ+","Physical illness or Cishet","true",""
"","iat","628","f","245","1868466","PTSD","Mental illness","Mental illness or LGBTQ+","Mental illness or LGBTQ+","Physical illness or Cishet","true",""
"","iat","605","f","247","1869325","Transgender","LGBTQ+","Mental illness or LGBTQ+","Mental illness or LGBTQ+","Physical illness or Cishet","true",""
"","iat","580","j","249","1870158","Pneumonia","Physical illness","Physical illness or Cishet","Mental illness or LGBTQ+","Physical illness or Cishet","true",""
"","iat","1123","f","251","1871536","Inclusivity","LGBTQ+","Mental illness or LGBTQ+","Mental illness or LGBTQ+","Physical illness or Cishet","true",""
"","iat","1631","f","253","1873421","Migraine","Physical illness","Physical illness or Cishet","Mental illness or LGBTQ+","Physical illness or Cishet","false",""
"","iat","2280","f","255","1875954","Bipolar Disorder","Mental illness","Mental illness or LGBTQ+","Mental illness or LGBTQ+","Physical illness or Cishet","true",""
"","iat","829","j","257","1877037","Heteronormative","Cishet","Physical illness or Cishet","Mental illness or LGBTQ+","Physical illness or Cishet","true",""
"","iat","801","f","259","1878092","Nonbinary","LGBTQ+","Mental illness or LGBTQ+","Mental illness or LGBTQ+","Physical illness or Cishet","true",""
"","iat","767","j","261","1879114","Epilepsy","Physical illness","Physical illness or Cishet","Mental illness or LGBTQ+","Physical illness or Cishet","true",""
"","iat","460","f","263","1879829","OCD","Mental illness","Mental illness or LGBTQ+","Mental illness or LGBTQ+","Physical illness or Cishet","true",""
"","iat","474","f","265","1880556","Genderqueer","LGBTQ+","Mental illness or LGBTQ+","Mental illness or LGBTQ+","Physical illness or Cishet","true",""
"","iat","611","f","267","1881421","Bisexual","LGBTQ+","Mental illness or LGBTQ+","Mental illness or LGBTQ+","Physical illness or Cishet","true",""
"","iat","1603","j","269","1883279","Leukemia","Physical illness","Physical illness or Cishet","Mental illness or LGBTQ+","Physical illness or Cishet","true",""
"","iat","564","f","271","1884096","Panic Disorder","Mental illness","Mental illness or LGBTQ+","Mental illness or LGBTQ+","Physical illness or Cishet","true",""
"","iat","755","f","273","1885106","Anxiety","Mental illness","Mental illness or LGBTQ+","Mental illness or LGBTQ+","Physical illness or Cishet","true",""
"","iat","696","j","275","1886055","Straight","Cishet","Physical illness or Cishet","Mental illness or LGBTQ+","Physical illness or Cishet","true",""
"","iat","673","f","277","1886981","Queerness","LGBTQ+","Mental illness or LGBTQ+","Mental illness or LGBTQ+","Physical illness or Cishet","true",""
"","iat","725","j","279","1887961","Common Cold","Physical illness","Physical illness or Cishet","Mental illness or LGBTQ+","Physical illness or Cishet","true",""
"","iat","655","f","281","1888869","Pansexual","LGBTQ+","Mental illness or LGBTQ+","Mental illness or LGBTQ+","Physical illness or Cishet","true",""
"","iat","628","f","283","1889750","Fluidity","LGBTQ+","Mental illness or LGBTQ+","Mental illness or LGBTQ+","Physical illness or Cishet","true",""
"","iat","629","f","285","1890631","Cissexual","Cishet","Physical illness or Cishet","Mental illness or LGBTQ+","Physical illness or Cishet","false",""
"","iat","621","f","287","1891504","Depression","Mental illness","Mental illness or LGBTQ+","Mental illness or LGBTQ+","Physical illness or Cishet","true",""
"","iat","712","f","289","1892471","Psychosis","Mental illness","Mental illness or LGBTQ+","Mental illness or LGBTQ+","Physical illness or Cishet","true",""
"","iat","560","f","291","1893285","Cisgendered","Cishet","Physical illness or Cishet","Mental illness or LGBTQ+","Physical illness or Cishet","false",""
"","iat","703","f","293","1894241","Androgynous","LGBTQ+","Mental illness or LGBTQ+","Mental illness or LGBTQ+","Physical illness or Cishet","true",""
"","Questionnaire","70701","{""question1"":1,""question2"":1,""question3"":1,""question4"":1,""question5"":3,""question6"":3,""question7"":3,""question8"":2,""question9"":1,""question10"":4,""question11"":0,""question12"":3,""question13"":3,""question14"":4,""question15"":1}","295","1965203","","","","","","","[0,1,2,3,4,5,6,7,8,9,10,11,12,13,14]"
