"whichPrime","trialType","rt","response","trial_index","time_elapsed","word","expectedCategory","expectedCategoryAsDisplayed","leftCategory","rightCategory","correct","question_order"
"Queer","prime","28617"," ","2","56224","","","","","","",""
"","iat","2684","j","5","84690","Cissexual","Cishet","Cishet","LGBTQ+","Cishet","true",""
"","iat","4958","f","7","89904","Conformity","Cishet","Cishet","LGBTQ+","Cishet","false",""
"","iat","1693","f","9","91850","Bisexual","LGBTQ+","LGBTQ+","LGBTQ+","Cishet","true",""
"","iat","1328","j","11","93434","Traditional","Cishet","Cishet","LGBTQ+","Cishet","true",""
"","iat","1446","f","13","95136","Diversity","LGBTQ+","LGBTQ+","LGBTQ+","Cishet","true",""
"","iat","795","j","15","96187","Straight","Cishet","Cishet","LGBTQ+","Cishet","true",""
"","iat","4549","j","17","100989","Heteronormative","Cishet","Cishet","LGBTQ+","Cishet","true",""
"","iat","1674","j","19","102921","Heterosexual","Cishet","Cishet","LGBTQ+","Cishet","true",""
"","iat","1077","f","21","104253","Genderqueer","LGBTQ+","LGBTQ+","LGBTQ+","Cishet","true",""
"","iat","1218","j","23","105723","Cisgendered","Cishet","Cishet","LGBTQ+","Cishet","true",""
"","iat","3334","f","25","109312","Androgynous","LGBTQ+","LGBTQ+","LGBTQ+","Cishet","true",""
"","iat","1680","f","27","111247","Fluidity","LGBTQ+","LGBTQ+","LGBTQ+","Cishet","true",""
"","iat","849","f","29","112353","Transgender","LGBTQ+","LGBTQ+","LGBTQ+","Cishet","true",""
"","iat","32325","j","31","144933","Usual","Cishet","Cishet","LGBTQ+","Cishet","true",""
"","iat","1851","f","33","147041","Inclusivity","LGBTQ+","LGBTQ+","LGBTQ+","Cishet","true",""
"","iat","1251","f","35","148548","Queerness","LGBTQ+","LGBTQ+","LGBTQ+","Cishet","true",""
"","iat","964","f","37","149769","Queerness","LGBTQ+","LGBTQ+","LGBTQ+","Cishet","true",""
"","iat","857","f","39","150881","Diversity","LGBTQ+","LGBTQ+","LGBTQ+","Cishet","true",""
"","iat","1220","j","41","152357","Usual","Cishet","Cishet","LGBTQ+","Cishet","true",""
"","iat","838","j","43","153450","Straight","Cishet","Cishet","LGBTQ+","Cishet","true",""
"","iat","1652","j","45","155358","Cissexual","Cishet","Cishet","LGBTQ+","Cishet","true",""
"","iat","812","f","47","156423","Bisexual","LGBTQ+","LGBTQ+","LGBTQ+","Cishet","true",""
"","iat","720","f","49","157400","Nonbinary","LGBTQ+","LGBTQ+","LGBTQ+","Cishet","true",""
"","iat","826","j","51","158482","Hetero","Cishet","Cishet","LGBTQ+","Cishet","true",""
"","iat","1769","j","53","160507","Heteronormative","Cishet","Cishet","LGBTQ+","Cishet","true",""
"","iat","3694","f","55","164456","Fluidity","LGBTQ+","LGBTQ+","LGBTQ+","Cishet","true",""
"","iat","1993","f","57","166705","Transgender","LGBTQ+","LGBTQ+","LGBTQ+","Cishet","true",""
"","iat","2196","f","59","169157","Biological","Cishet","Cishet","LGBTQ+","Cishet","false",""
"","iat","1060","f","61","170470","Nonbinary","LGBTQ+","LGBTQ+","LGBTQ+","Cishet","true",""
"","iat","1005","f","63","171730","Conformity","Cishet","Cishet","LGBTQ+","Cishet","false",""
"","iat","1506","j","65","173492","Hetero","Cishet","Cishet","LGBTQ+","Cishet","true",""
"","iat","649","j","67","174398","Heterosexual","Cishet","Cishet","LGBTQ+","Cishet","true",""
"","iat","1631","f","69","176284","Androgynous","LGBTQ+","LGBTQ+","LGBTQ+","Cishet","true",""
"","iat","3689","f","71","180228","Genderqueer","LGBTQ+","LGBTQ+","LGBTQ+","Cishet","true",""
"","iat","4096","f","73","184580","Pansexual","LGBTQ+","LGBTQ+","LGBTQ+","Cishet","true",""
"","iat","1352","j","75","186189","Traditional","Cishet","Cishet","LGBTQ+","Cishet","true",""
"","iat","3896","j","78","196060","PTSD","Mental illness","Mental illness","Physical illness","Mental illness","true",""
"","iat","1365","j","80","197680","Schizophrenia","Mental illness","Mental illness","Physical illness","Mental illness","true",""
"","iat","939","f","82","198874","Pneumonia","Physical illness","Physical illness","Physical illness","Mental illness","true",""
"","iat","6679","j","84","205808","Autism","Mental illness","Mental illness","Physical illness","Mental illness","true",""
"","iat","904","f","86","206970","Asthma","Physical illness","Physical illness","Physical illness","Mental illness","true",""
"","iat","955","f","88","208180","Meningitis","Physical illness","Physical illness","Physical illness","Mental illness","true",""
"","iat","711","f","90","209147","Diabetes","Physical illness","Physical illness","Physical illness","Mental illness","true",""
"","iat","1473","j","92","210876","Migraine","Physical illness","Physical illness","Physical illness","Mental illness","false",""
"","iat","1852","j","94","212983","Depression","Mental illness","Mental illness","Physical illness","Mental illness","true",""
"","iat","2390","j","96","215627","Anxiety","Mental illness","Mental illness","Physical illness","Mental illness","true",""
"","iat","848","f","98","216730","Arthritis","Physical illness","Physical illness","Physical illness","Mental illness","true",""
"","iat","738","f","100","217723","Arthritis","Physical illness","Physical illness","Physical illness","Mental illness","true",""
"","iat","1079","j","102","219058","Bipolar Disorder","Mental illness","Mental illness","Physical illness","Mental illness","true",""
"","iat","2221","f","104","221536","Diabetes","Physical illness","Physical illness","Physical illness","Mental illness","true",""
"","iat","971","f","106","222764","Common Cold","Physical illness","Physical illness","Physical illness","Mental illness","true",""
"","iat","1386","j","108","224405","Panic Disorder","Mental illness","Mental illness","Physical illness","Mental illness","true",""
"","iat","1227","j","110","225887","Epilepsy","Physical illness","Physical illness","Physical illness","Mental illness","false",""
"","iat","929","f","112","227071","Pneumonia","Physical illness","Physical illness","Physical illness","Mental illness","true",""
"","iat","2003","f","114","229331","Influenza","Physical illness","Physical illness","Physical illness","Mental illness","true",""
"","iat","846","j","116","230433","OCD","Mental illness","Mental illness","Physical illness","Mental illness","true",""
"","iat","873","j","118","231562","Depression","Mental illness","Mental illness","Physical illness","Mental illness","true",""
"","iat","881","j","120","232698","Epilepsy","Physical illness","Physical illness","Physical illness","Mental illness","false",""
"","iat","870","f","122","233825","Asthma","Physical illness","Physical illness","Physical illness","Mental illness","true",""
"","iat","867","f","124","234946","Leukemia","Physical illness","Physical illness","Physical illness","Mental illness","true",""
"","iat","1069","j","126","236271","Psychosis","Mental illness","Mental illness","Physical illness","Mental illness","true",""
"","iat","848","j","128","237374","Autism","Mental illness","Mental illness","Physical illness","Mental illness","true",""
"","iat","1077","f","130","238707","Meningitis","Physical illness","Physical illness","Physical illness","Mental illness","true",""
"","iat","1306","f","132","240269","Anorexia","Mental illness","Mental illness","Physical illness","Mental illness","false",""
"","iat","867","j","134","241391","Anxiety","Mental illness","Mental illness","Physical illness","Mental illness","true",""
"","iat","4023","f","136","245671","Migraine","Physical illness","Physical illness","Physical illness","Mental illness","true",""
"","iat","1589","j","138","247515","Psychosis","Mental illness","Mental illness","Physical illness","Mental illness","true",""
"","iat","1239","j","140","249009","Panic Disorder","Mental illness","Mental illness","Physical illness","Mental illness","true",""
"","iat","759","f","142","250024","Leukemia","Physical illness","Physical illness","Physical illness","Mental illness","true",""
"","iat","1056","j","144","251336","PTSD","Mental illness","Mental illness","Physical illness","Mental illness","true",""
"","iat","666","j","146","252258","OCD","Mental illness","Mental illness","Physical illness","Mental illness","true",""
"","iat","997","f","148","253511","Anorexia","Mental illness","Mental illness","Physical illness","Mental illness","false",""
"","iat","12724","f","151","275439","Anorexia","Mental illness","Mental illness or Cishet","Mental illness or Cishet","Physical illness or LGBTQ+","true",""
"","iat","2102","j","153","277797","Migraine","Physical illness","Physical illness or LGBTQ+","Mental illness or Cishet","Physical illness or LGBTQ+","true",""
"","iat","4540","j","155","282592","Diabetes","Physical illness","Physical illness or LGBTQ+","Mental illness or Cishet","Physical illness or LGBTQ+","true",""
"","iat","2060","j","157","284908","Inclusivity","LGBTQ+","Physical illness or LGBTQ+","Mental illness or Cishet","Physical illness or LGBTQ+","true",""
"","iat","1154","f","159","286317","Common Cold","Physical illness","Physical illness or LGBTQ+","Mental illness or Cishet","Physical illness or LGBTQ+","false",""
"","iat","3389","f","161","289961","Psychosis","Mental illness","Mental illness or Cishet","Mental illness or Cishet","Physical illness or LGBTQ+","true",""
"","iat","3295","f","163","293513","Autism","Mental illness","Mental illness or Cishet","Mental illness or Cishet","Physical illness or LGBTQ+","true",""
"","iat","6561","f","165","300331","Cisgendered","Cishet","Mental illness or Cishet","Mental illness or Cishet","Physical illness or LGBTQ+","true",""
"","iat","5626","j","167","306212","Asthma","Physical illness","Physical illness or LGBTQ+","Mental illness or Cishet","Physical illness or LGBTQ+","true",""
"","iat","888","f","169","307357","Anxiety","Mental illness","Mental illness or Cishet","Mental illness or Cishet","Physical illness or LGBTQ+","true",""
"","iat","1102","f","171","308715","OCD","Mental illness","Mental illness or Cishet","Mental illness or Cishet","Physical illness or LGBTQ+","true",""
"","iat","1421","f","173","310392","Traditional","Cishet","Mental illness or Cishet","Mental illness or Cishet","Physical illness or LGBTQ+","true",""
"","iat","1110","j","175","311758","Nonbinary","LGBTQ+","Physical illness or LGBTQ+","Mental illness or Cishet","Physical illness or LGBTQ+","true",""
"","iat","2518","f","177","314532","Panic Disorder","Mental illness","Mental illness or Cishet","Mental illness or Cishet","Physical illness or LGBTQ+","true",""
"","iat","2338","f","179","317126","Pneumonia","Physical illness","Physical illness or LGBTQ+","Mental illness or Cishet","Physical illness or LGBTQ+","false",""
"","iat","1426","f","181","318809","Conformity","Cishet","Mental illness or Cishet","Mental illness or Cishet","Physical illness or LGBTQ+","true",""
"","iat","2003","j","183","321068","Transgender","LGBTQ+","Physical illness or LGBTQ+","Mental illness or Cishet","Physical illness or LGBTQ+","true",""
"","iat","990","f","185","322315","Hetero","Cishet","Mental illness or Cishet","Mental illness or Cishet","Physical illness or LGBTQ+","true",""
"","iat","1979","j","187","324549","Androgynous","LGBTQ+","Physical illness or LGBTQ+","Mental illness or Cishet","Physical illness or LGBTQ+","true",""
"","iat","1004","f","189","325809","Heterosexual","Cishet","Mental illness or Cishet","Mental illness or Cishet","Physical illness or LGBTQ+","true",""
"","iat","910","j","191","326974","Genderqueer","LGBTQ+","Physical illness or LGBTQ+","Mental illness or Cishet","Physical illness or LGBTQ+","true",""
"","iat","1049","j","193","328277","Fluidity","LGBTQ+","Physical illness or LGBTQ+","Mental illness or Cishet","Physical illness or LGBTQ+","true",""
"","iat","1503","j","195","330036","Leukemia","Physical illness","Physical illness or LGBTQ+","Mental illness or Cishet","Physical illness or LGBTQ+","true",""
"","iat","3056","j","197","333346","Diversity","LGBTQ+","Physical illness or LGBTQ+","Mental illness or Cishet","Physical illness or LGBTQ+","true",""
"","iat","1515","f","199","335117","Usual","Cishet","Mental illness or Cishet","Mental illness or Cishet","Physical illness or LGBTQ+","true",""
"","iat","14895","f","201","350269","Depression","Mental illness","Mental illness or Cishet","Mental illness or Cishet","Physical illness or LGBTQ+","true",""
"","iat","4742","j","203","355267","Queerness","LGBTQ+","Physical illness or LGBTQ+","Mental illness or Cishet","Physical illness or LGBTQ+","true",""
"","iat","1685","f","205","357210","PTSD","Mental illness","Mental illness or Cishet","Mental illness or Cishet","Physical illness or LGBTQ+","true",""
"","iat","2994","j","207","360461","Biological","Cishet","Mental illness or Cishet","Mental illness or Cishet","Physical illness or LGBTQ+","false",""
"","iat","1321","f","209","362037","Schizophrenia","Mental illness","Mental illness or Cishet","Mental illness or Cishet","Physical illness or LGBTQ+","true",""
"","iat","858","j","211","363149","Influenza","Physical illness","Physical illness or LGBTQ+","Mental illness or Cishet","Physical illness or LGBTQ+","true",""
"","iat","1056","j","213","364460","Epilepsy","Physical illness","Physical illness or LGBTQ+","Mental illness or Cishet","Physical illness or LGBTQ+","true",""
"","iat","905","j","215","365621","Bisexual","LGBTQ+","Physical illness or LGBTQ+","Mental illness or Cishet","Physical illness or LGBTQ+","true",""
"","iat","1052","f","217","366929","Straight","Cishet","Mental illness or Cishet","Mental illness or Cishet","Physical illness or LGBTQ+","true",""
"","iat","1858","f","219","369042","Cissexual","Cishet","Mental illness or Cishet","Mental illness or Cishet","Physical illness or LGBTQ+","true",""
"","iat","1726","j","221","371023","Pansexual","LGBTQ+","Physical illness or LGBTQ+","Mental illness or Cishet","Physical illness or LGBTQ+","true",""
"","iat","4716","j","224","377997","Hetero","Cishet","Physical illness or Cishet","Mental illness or LGBTQ+","Physical illness or Cishet","true",""
"","iat","1350","f","226","379603","Bisexual","LGBTQ+","Mental illness or LGBTQ+","Mental illness or LGBTQ+","Physical illness or Cishet","true",""
"","iat","1372","f","228","381232","Anxiety","Mental illness","Mental illness or LGBTQ+","Mental illness or LGBTQ+","Physical illness or Cishet","true",""
"","iat","1231","f","230","382718","PTSD","Mental illness","Mental illness or LGBTQ+","Mental illness or LGBTQ+","Physical illness or Cishet","true",""
"","iat","1018","f","232","383992","Schizophrenia","Mental illness","Mental illness or LGBTQ+","Mental illness or LGBTQ+","Physical illness or Cishet","true",""
"","iat","1058","f","234","385307","Queerness","LGBTQ+","Mental illness or LGBTQ+","Mental illness or LGBTQ+","Physical illness or Cishet","true",""
"","iat","1127","j","236","386689","Migraine","Physical illness","Physical illness or Cishet","Mental illness or LGBTQ+","Physical illness or Cishet","true",""
"","iat","765","j","238","387710","Meningitis","Physical illness","Physical illness or Cishet","Mental illness or LGBTQ+","Physical illness or Cishet","true",""
"","iat","2805","f","240","390771","Anorexia","Mental illness","Mental illness or LGBTQ+","Mental illness or LGBTQ+","Physical illness or Cishet","true",""
"","iat","2089","f","242","393115","Pansexual","LGBTQ+","Mental illness or LGBTQ+","Mental illness or LGBTQ+","Physical illness or Cishet","true",""
"","iat","1244","j","244","394614","Cissexual","Cishet","Physical illness or Cishet","Mental illness or LGBTQ+","Physical illness or Cishet","true",""
"","iat","4862","f","246","399732","Panic Disorder","Mental illness","Mental illness or LGBTQ+","Mental illness or LGBTQ+","Physical illness or Cishet","true",""
"","iat","1012","f","248","401000","Diversity","LGBTQ+","Mental illness or LGBTQ+","Mental illness or LGBTQ+","Physical illness or Cishet","true",""
"","iat","794","f","250","402050","Depression","Mental illness","Mental illness or LGBTQ+","Mental illness or LGBTQ+","Physical illness or Cishet","true",""
"","iat","778","j","252","403085","Diabetes","Physical illness","Physical illness or Cishet","Mental illness or LGBTQ+","Physical illness or Cishet","true",""
"","iat","1055","j","254","404396","Common Cold","Physical illness","Physical illness or Cishet","Mental illness or LGBTQ+","Physical illness or Cishet","true",""
"","iat","2764","j","256","407416","Epilepsy","Physical illness","Physical illness or Cishet","Mental illness or LGBTQ+","Physical illness or Cishet","true",""
"","iat","2213","j","258","409884","Traditional","Cishet","Physical illness or Cishet","Mental illness or LGBTQ+","Physical illness or Cishet","true",""
"","iat","1835","f","260","411974","Inclusivity","LGBTQ+","Mental illness or LGBTQ+","Mental illness or LGBTQ+","Physical illness or Cishet","true",""
"","iat","1426","f","262","413656","Fluidity","LGBTQ+","Mental illness or LGBTQ+","Mental illness or LGBTQ+","Physical illness or Cishet","true",""
"","iat","1121","f","264","415033","Bipolar Disorder","Mental illness","Mental illness or LGBTQ+","Mental illness or LGBTQ+","Physical illness or Cishet","true",""
"","iat","829","f","266","416119","Nonbinary","LGBTQ+","Mental illness or LGBTQ+","Mental illness or LGBTQ+","Physical illness or Cishet","true",""
"","iat","1842","j","268","418216","Cisgendered","Cishet","Physical illness or Cishet","Mental illness or LGBTQ+","Physical illness or Cishet","true",""
"","iat","2190","j","270","420661","Influenza","Physical illness","Physical illness or Cishet","Mental illness or LGBTQ+","Physical illness or Cishet","true",""
"","iat","11618","f","272","432535","Psychosis","Mental illness","Mental illness or LGBTQ+","Mental illness or LGBTQ+","Physical illness or Cishet","true",""
"","iat","1735","j","274","434525","Heterosexual","Cishet","Physical illness or Cishet","Mental illness or LGBTQ+","Physical illness or Cishet","true",""
"","iat","877","j","276","435657","Usual","Cishet","Physical illness or Cishet","Mental illness or LGBTQ+","Physical illness or Cishet","true",""
"","iat","1207","f","278","437120","Pneumonia","Physical illness","Physical illness or Cishet","Mental illness or LGBTQ+","Physical illness or Cishet","false",""
"","iat","2950","f","280","440327","Transgender","LGBTQ+","Mental illness or LGBTQ+","Mental illness or LGBTQ+","Physical illness or Cishet","true",""
"","iat","1371","j","282","441954","Straight","Cishet","Physical illness or Cishet","Mental illness or LGBTQ+","Physical illness or Cishet","true",""
"","iat","815","j","284","443024","Arthritis","Physical illness","Physical illness or Cishet","Mental illness or LGBTQ+","Physical illness or Cishet","true",""
"","iat","1228","f","286","444507","Conformity","Cishet","Physical illness or Cishet","Mental illness or LGBTQ+","Physical illness or Cishet","false",""
"","iat","965","f","288","445728","Genderqueer","LGBTQ+","Mental illness or LGBTQ+","Mental illness or LGBTQ+","Physical illness or Cishet","true",""
"","iat","907","f","290","446890","Autism","Mental illness","Mental illness or LGBTQ+","Mental illness or LGBTQ+","Physical illness or Cishet","true",""
"","iat","3801","f","292","450945","Biological","Cishet","Physical illness or Cishet","Mental illness or LGBTQ+","Physical illness or Cishet","false",""
"","iat","2363","j","294","453563","Leukemia","Physical illness","Physical illness or Cishet","Mental illness or LGBTQ+","Physical illness or Cishet","true",""
"","Questionnaire","93528","{""question1"":1,""question2"":0,""question3"":0,""question4"":0,""question5"":4,""question6"":4,""question7"":4,""question8"":0,""question9"":0,""question10"":4,""question11"":1,""question12"":4,""question13"":1,""question14"":4,""question15"":0}","296","547352","","","","","","","[0,1,2,3,4,5,6,7,8,9,10,11,12,13,14]"
