"whichPrime","trialType","rt","response","trial_index","time_elapsed","word","expectedCategory","expectedCategoryAsDisplayed","leftCategory","rightCategory","correct","question_order"
"Queer","prime","31832"," ","2","65447","","","","","","",""
"","iat","3512","f","5","83437","Inclusivity","LGBTQ+","LGBTQ+","LGBTQ+","Cishet","true",""
"","iat","1614","f","7","85306","Fluidity","LGBTQ+","LGBTQ+","LGBTQ+","Cishet","true",""
"","iat","1899","f","9","87460","Genderqueer","LGBTQ+","LGBTQ+","LGBTQ+","Cishet","true",""
"","iat","3054","j","11","90767","Heterosexual","Cishet","Cishet","LGBTQ+","Cishet","true",""
"","iat","4062","f","13","95084","Transgender","LGBTQ+","LGBTQ+","LGBTQ+","Cishet","true",""
"","iat","1724","f","15","97062","Queerness","LGBTQ+","LGBTQ+","LGBTQ+","Cishet","true",""
"","iat","1616","f","17","98930","Androgynous","LGBTQ+","LGBTQ+","LGBTQ+","Cishet","true",""
"","iat","1790","j","19","100975","Conformity","Cishet","Cishet","LGBTQ+","Cishet","true",""
"","iat","1269","j","21","102497","Usual","Cishet","Cishet","LGBTQ+","Cishet","true",""
"","iat","1865","f","23","104615","Diversity","LGBTQ+","LGBTQ+","LGBTQ+","Cishet","true",""
"","iat","5275","j","25","110143","Biological","Cishet","Cishet","LGBTQ+","Cishet","true",""
"","iat","1554","f","27","111951","Nonbinary","LGBTQ+","LGBTQ+","LGBTQ+","Cishet","true",""
"","iat","985","f","29","113189","Pansexual","LGBTQ+","LGBTQ+","LGBTQ+","Cishet","true",""
"","iat","1899","f","31","115342","Queerness","LGBTQ+","LGBTQ+","LGBTQ+","Cishet","true",""
"","iat","974","j","33","116569","Traditional","Cishet","Cishet","LGBTQ+","Cishet","true",""
"","iat","3260","f","35","120084","Bisexual","LGBTQ+","LGBTQ+","LGBTQ+","Cishet","true",""
"","iat","705","f","37","121142","Genderqueer","LGBTQ+","LGBTQ+","LGBTQ+","Cishet","true",""
"","iat","1046","f","39","122441","Transgender","LGBTQ+","LGBTQ+","LGBTQ+","Cishet","true",""
"","iat","888","j","41","123583","Straight","Cishet","Cishet","LGBTQ+","Cishet","true",""
"","iat","6234","j","43","130070","Cisgendered","Cishet","Cishet","LGBTQ+","Cishet","true",""
"","iat","1050","j","45","131374","Hetero","Cishet","Cishet","LGBTQ+","Cishet","true",""
"","iat","949","f","47","132577","Fluidity","LGBTQ+","LGBTQ+","LGBTQ+","Cishet","true",""
"","iat","816","j","49","133646","Cisgendered","Cishet","Cishet","LGBTQ+","Cishet","true",""
"","iat","971","j","51","134870","Biological","Cishet","Cishet","LGBTQ+","Cishet","true",""
"","iat","1023","j","53","136148","Traditional","Cishet","Cishet","LGBTQ+","Cishet","true",""
"","iat","840","j","55","137242","Hetero","Cishet","Cishet","LGBTQ+","Cishet","true",""
"","iat","969","f","57","138464","Inclusivity","LGBTQ+","LGBTQ+","LGBTQ+","Cishet","true",""
"","iat","2062","j","59","140780","Heteronormative","Cishet","Cishet","LGBTQ+","Cishet","true",""
"","iat","1051","j","61","142084","Conformity","Cishet","Cishet","LGBTQ+","Cishet","true",""
"","iat","1658","f","63","143996","Androgynous","LGBTQ+","LGBTQ+","LGBTQ+","Cishet","true",""
"","iat","1657","j","65","145906","Cissexual","Cishet","Cishet","LGBTQ+","Cishet","true",""
"","iat","1034","j","67","147194","Usual","Cishet","Cishet","LGBTQ+","Cishet","true",""
"","iat","1108","f","69","148557","Diversity","LGBTQ+","LGBTQ+","LGBTQ+","Cishet","true",""
"","iat","12129","j","71","160940","Cissexual","Cishet","Cishet","LGBTQ+","Cishet","true",""
"","iat","8179","f","73","169373","Nonbinary","LGBTQ+","LGBTQ+","LGBTQ+","Cishet","true",""
"","iat","1192","f","75","170818","Heterosexual","Cishet","Cishet","LGBTQ+","Cishet","false",""
"","iat","3542","j","78","184123","Meningitis","Physical illness","Physical illness","Mental illness","Physical illness","true",""
"","iat","1887","j","80","186264","Anorexia","Mental illness","Mental illness","Mental illness","Physical illness","false",""
"","iat","1301","f","82","187820","Psychosis","Mental illness","Mental illness","Mental illness","Physical illness","true",""
"","iat","978","f","84","189052","Panic Disorder","Mental illness","Mental illness","Mental illness","Physical illness","true",""
"","iat","774","f","86","190081","Anxiety","Mental illness","Mental illness","Mental illness","Physical illness","true",""
"","iat","724","f","88","191059","Anxiety","Mental illness","Mental illness","Mental illness","Physical illness","true",""
"","iat","779","j","90","192092","Diabetes","Physical illness","Physical illness","Mental illness","Physical illness","true",""
"","iat","909","f","92","193255","OCD","Mental illness","Mental illness","Mental illness","Physical illness","true",""
"","iat","981","j","94","194490","Asthma","Physical illness","Physical illness","Mental illness","Physical illness","true",""
"","iat","642","j","96","195386","Asthma","Physical illness","Physical illness","Mental illness","Physical illness","true",""
"","iat","1375","j","98","197015","Common Cold","Physical illness","Physical illness","Mental illness","Physical illness","true",""
"","iat","725","j","100","197994","Leukemia","Physical illness","Physical illness","Mental illness","Physical illness","true",""
"","iat","608","j","102","198856","Diabetes","Physical illness","Physical illness","Mental illness","Physical illness","true",""
"","iat","740","f","104","199850","Autism","Mental illness","Mental illness","Mental illness","Physical illness","true",""
"","iat","876","j","106","200980","Epilepsy","Physical illness","Physical illness","Mental illness","Physical illness","true",""
"","iat","846","f","108","202080","Schizophrenia","Mental illness","Mental illness","Mental illness","Physical illness","true",""
"","iat","909","j","110","203242","Leukemia","Physical illness","Physical illness","Mental illness","Physical illness","true",""
"","iat","745","f","112","204239","Bipolar Disorder","Mental illness","Mental illness","Mental illness","Physical illness","true",""
"","iat","1025","f","114","205518","Schizophrenia","Mental illness","Mental illness","Mental illness","Physical illness","true",""
"","iat","1039","j","116","206810","Arthritis","Physical illness","Physical illness","Mental illness","Physical illness","true",""
"","iat","1248","j","118","208312","Migraine","Physical illness","Physical illness","Mental illness","Physical illness","true",""
"","iat","933","j","120","209498","Arthritis","Physical illness","Physical illness","Mental illness","Physical illness","true",""
"","iat","705","f","122","210457","Depression","Mental illness","Mental illness","Mental illness","Physical illness","true",""
"","iat","741","j","124","211452","Influenza","Physical illness","Physical illness","Mental illness","Physical illness","true",""
"","iat","840","j","126","212545","Pneumonia","Physical illness","Physical illness","Mental illness","Physical illness","true",""
"","iat","830","f","128","213629","Autism","Mental illness","Mental illness","Mental illness","Physical illness","true",""
"","iat","1010","j","130","214893","Epilepsy","Physical illness","Physical illness","Mental illness","Physical illness","true",""
"","iat","714","f","132","215861","Bipolar Disorder","Mental illness","Mental illness","Mental illness","Physical illness","true",""
"","iat","826","f","134","216941","Psychosis","Mental illness","Mental illness","Mental illness","Physical illness","true",""
"","iat","783","f","136","217978","PTSD","Mental illness","Mental illness","Mental illness","Physical illness","true",""
"","iat","779","j","138","219010","Migraine","Physical illness","Physical illness","Mental illness","Physical illness","true",""
"","iat","920","f","140","220184","OCD","Mental illness","Mental illness","Mental illness","Physical illness","true",""
"","iat","657","j","142","221095","Common Cold","Physical illness","Physical illness","Mental illness","Physical illness","true",""
"","iat","692","f","144","222040","PTSD","Mental illness","Mental illness","Mental illness","Physical illness","true",""
"","iat","788","j","146","223081","Anorexia","Mental illness","Mental illness","Mental illness","Physical illness","false",""
"","iat","779","j","148","224114","Meningitis","Physical illness","Physical illness","Mental illness","Physical illness","true",""
"","iat","8275","j","151","278590","Depression","Mental illness","Mental illness or Cishet","Physical illness or LGBTQ+","Mental illness or Cishet","true",""
"","iat","1859","j","153","280702","Straight","Cishet","Mental illness or Cishet","Physical illness or LGBTQ+","Mental illness or Cishet","true",""
"","iat","2446","f","155","283402","Meningitis","Physical illness","Physical illness or LGBTQ+","Physical illness or LGBTQ+","Mental illness or Cishet","true",""
"","iat","7404","f","157","291061","Biological","Cishet","Mental illness or Cishet","Physical illness or LGBTQ+","Mental illness or Cishet","false",""
"","iat","2544","f","159","293859","Pneumonia","Physical illness","Physical illness or LGBTQ+","Physical illness or LGBTQ+","Mental illness or Cishet","true",""
"","iat","6875","j","161","300989","Autism","Mental illness","Mental illness or Cishet","Physical illness or LGBTQ+","Mental illness or Cishet","true",""
"","iat","5170","j","163","306412","Conformity","Cishet","Mental illness or Cishet","Physical illness or LGBTQ+","Mental illness or Cishet","true",""
"","iat","1375","f","165","308041","Common Cold","Physical illness","Physical illness or LGBTQ+","Physical illness or LGBTQ+","Mental illness or Cishet","true",""
"","iat","3475","f","167","311770","Inclusivity","LGBTQ+","Physical illness or LGBTQ+","Physical illness or LGBTQ+","Mental illness or Cishet","true",""
"","iat","1316","f","169","313340","Arthritis","Physical illness","Physical illness or LGBTQ+","Physical illness or LGBTQ+","Mental illness or Cishet","true",""
"","iat","1509","f","171","315103","Genderqueer","LGBTQ+","Physical illness or LGBTQ+","Physical illness or LGBTQ+","Mental illness or Cishet","true",""
"","iat","1123","j","173","316480","Heterosexual","Cishet","Mental illness or Cishet","Physical illness or LGBTQ+","Mental illness or Cishet","true",""
"","iat","1319","f","175","318053","Influenza","Physical illness","Physical illness or LGBTQ+","Physical illness or LGBTQ+","Mental illness or Cishet","true",""
"","iat","1679","f","177","319985","Nonbinary","LGBTQ+","Physical illness or LGBTQ+","Physical illness or LGBTQ+","Mental illness or Cishet","true",""
"","iat","4111","f","179","324349","Heteronormative","Cishet","Mental illness or Cishet","Physical illness or LGBTQ+","Mental illness or Cishet","false",""
"","iat","5016","f","181","329618","Pansexual","LGBTQ+","Physical illness or LGBTQ+","Physical illness or LGBTQ+","Mental illness or Cishet","true",""
"","iat","2056","f","183","331927","Diabetes","Physical illness","Physical illness or LGBTQ+","Physical illness or LGBTQ+","Mental illness or Cishet","true",""
"","iat","2949","f","185","335131","Bisexual","LGBTQ+","Physical illness or LGBTQ+","Physical illness or LGBTQ+","Mental illness or Cishet","true",""
"","iat","6621","f","187","342007","Anorexia","Mental illness","Mental illness or Cishet","Physical illness or LGBTQ+","Mental illness or Cishet","false",""
"","iat","1599","j","189","343859","Anxiety","Mental illness","Mental illness or Cishet","Physical illness or LGBTQ+","Mental illness or Cishet","true",""
"","iat","3134","f","191","347247","Epilepsy","Physical illness","Physical illness or LGBTQ+","Physical illness or LGBTQ+","Mental illness or Cishet","true",""
"","iat","3234","f","193","350736","Diversity","LGBTQ+","Physical illness or LGBTQ+","Physical illness or LGBTQ+","Mental illness or Cishet","true",""
"","iat","1529","f","195","352518","Androgynous","LGBTQ+","Physical illness or LGBTQ+","Physical illness or LGBTQ+","Mental illness or Cishet","true",""
"","iat","5372","j","197","358144","Hetero","Cishet","Mental illness or Cishet","Physical illness or LGBTQ+","Mental illness or Cishet","true",""
"","iat","1891","f","199","360289","Transgender","LGBTQ+","Physical illness or LGBTQ+","Physical illness or LGBTQ+","Mental illness or Cishet","true",""
"","iat","2382","f","201","362926","Migraine","Physical illness","Physical illness or LGBTQ+","Physical illness or LGBTQ+","Mental illness or Cishet","true",""
"","iat","15144","j","203","378323","PTSD","Mental illness","Mental illness or Cishet","Physical illness or LGBTQ+","Mental illness or Cishet","true",""
"","iat","1712","j","205","380289","Psychosis","Mental illness","Mental illness or Cishet","Physical illness or LGBTQ+","Mental illness or Cishet","true",""
"","iat","1431","j","207","381974","Cissexual","Cishet","Mental illness or Cishet","Physical illness or LGBTQ+","Mental illness or Cishet","true",""
"","iat","1610","j","209","383837","Cisgendered","Cishet","Mental illness or Cishet","Physical illness or LGBTQ+","Mental illness or Cishet","true",""
"","iat","737","f","211","384828","Queerness","LGBTQ+","Physical illness or LGBTQ+","Physical illness or LGBTQ+","Mental illness or Cishet","true",""
"","iat","937","f","213","386019","Asthma","Physical illness","Physical illness or LGBTQ+","Physical illness or LGBTQ+","Mental illness or Cishet","true",""
"","iat","817","j","215","387089","Traditional","Cishet","Mental illness or Cishet","Physical illness or LGBTQ+","Mental illness or Cishet","true",""
"","iat","1238","j","217","388581","Schizophrenia","Mental illness","Mental illness or Cishet","Physical illness or LGBTQ+","Mental illness or Cishet","true",""
"","iat","817","j","219","389652","Bipolar Disorder","Mental illness","Mental illness or Cishet","Physical illness or LGBTQ+","Mental illness or Cishet","true",""
"","iat","1137","j","221","391042","OCD","Mental illness","Mental illness or Cishet","Physical illness or LGBTQ+","Mental illness or Cishet","true",""
"","iat","7234","j","224","441990","Usual","Cishet","Physical illness or Cishet","Mental illness or LGBTQ+","Physical illness or Cishet","true",""
"","iat","1751","j","226","443995","Epilepsy","Physical illness","Physical illness or Cishet","Mental illness or LGBTQ+","Physical illness or Cishet","true",""
"","iat","925","j","228","445173","Biological","Cishet","Physical illness or Cishet","Mental illness or LGBTQ+","Physical illness or Cishet","true",""
"","iat","1501","f","230","446928","Transgender","LGBTQ+","Mental illness or LGBTQ+","Mental illness or LGBTQ+","Physical illness or Cishet","true",""
"","iat","1056","f","232","448237","Queerness","LGBTQ+","Mental illness or LGBTQ+","Mental illness or LGBTQ+","Physical illness or Cishet","true",""
"","iat","683","f","234","449174","Panic Disorder","Mental illness","Mental illness or LGBTQ+","Mental illness or LGBTQ+","Physical illness or Cishet","true",""
"","iat","627","f","236","450055","Nonbinary","LGBTQ+","Mental illness or LGBTQ+","Mental illness or LGBTQ+","Physical illness or Cishet","true",""
"","iat","606","f","238","450915","Psychosis","Mental illness","Mental illness or LGBTQ+","Mental illness or LGBTQ+","Physical illness or Cishet","true",""
"","iat","756","j","240","451925","Straight","Cishet","Physical illness or Cishet","Mental illness or LGBTQ+","Physical illness or Cishet","true",""
"","iat","1125","j","242","453304","Meningitis","Physical illness","Physical illness or Cishet","Mental illness or LGBTQ+","Physical illness or Cishet","true",""
"","iat","763","j","244","454321","Pneumonia","Physical illness","Physical illness or Cishet","Mental illness or LGBTQ+","Physical illness or Cishet","true",""
"","iat","616","f","246","455190","Pansexual","LGBTQ+","Mental illness or LGBTQ+","Mental illness or LGBTQ+","Physical illness or Cishet","true",""
"","iat","607","f","248","456051","Anorexia","Mental illness","Mental illness or LGBTQ+","Mental illness or LGBTQ+","Physical illness or Cishet","true",""
"","iat","614","j","250","456919","Cissexual","Cishet","Physical illness or Cishet","Mental illness or LGBTQ+","Physical illness or Cishet","true",""
"","iat","1133","f","252","458306","Autism","Mental illness","Mental illness or LGBTQ+","Mental illness or LGBTQ+","Physical illness or Cishet","true",""
"","iat","1965","f","254","460525","OCD","Mental illness","Mental illness or LGBTQ+","Mental illness or LGBTQ+","Physical illness or Cishet","true",""
"","iat","9047","j","256","469825","Asthma","Physical illness","Physical illness or Cishet","Mental illness or LGBTQ+","Physical illness or Cishet","true",""
"","iat","945","j","258","471024","Influenza","Physical illness","Physical illness or Cishet","Mental illness or LGBTQ+","Physical illness or Cishet","true",""
"","iat","2207","f","260","473486","Androgynous","LGBTQ+","Mental illness or LGBTQ+","Mental illness or LGBTQ+","Physical illness or Cishet","true",""
"","iat","2822","j","262","476561","Diabetes","Physical illness","Physical illness or Cishet","Mental illness or LGBTQ+","Physical illness or Cishet","true",""
"","iat","1731","j","264","478547","Conformity","Cishet","Physical illness or Cishet","Mental illness or LGBTQ+","Physical illness or Cishet","true",""
"","iat","1325","f","266","480126","Genderqueer","LGBTQ+","Mental illness or LGBTQ+","Mental illness or LGBTQ+","Physical illness or Cishet","true",""
"","iat","545","f","268","480924","Bisexual","LGBTQ+","Mental illness or LGBTQ+","Mental illness or LGBTQ+","Physical illness or Cishet","true",""
"","iat","668","j","270","481846","Migraine","Physical illness","Physical illness or Cishet","Mental illness or LGBTQ+","Physical illness or Cishet","true",""
"","iat","2659","j","272","484758","Hetero","Cishet","Physical illness or Cishet","Mental illness or LGBTQ+","Physical illness or Cishet","true",""
"","iat","911","j","274","485923","Heterosexual","Cishet","Physical illness or Cishet","Mental illness or LGBTQ+","Physical illness or Cishet","true",""
"","iat","864","f","276","487041","Schizophrenia","Mental illness","Mental illness or LGBTQ+","Mental illness or LGBTQ+","Physical illness or Cishet","true",""
"","iat","606","f","278","487900","Cisgendered","Cishet","Physical illness or Cishet","Mental illness or LGBTQ+","Physical illness or Cishet","false",""
"","iat","1767","f","280","489920","PTSD","Mental illness","Mental illness or LGBTQ+","Mental illness or LGBTQ+","Physical illness or Cishet","true",""
"","iat","1816","f","282","491989","Inclusivity","LGBTQ+","Mental illness or LGBTQ+","Mental illness or LGBTQ+","Physical illness or Cishet","true",""
"","iat","4019","j","284","496262","Arthritis","Physical illness","Physical illness or Cishet","Mental illness or LGBTQ+","Physical illness or Cishet","true",""
"","iat","4584","j","286","501099","Leukemia","Physical illness","Physical illness or Cishet","Mental illness or LGBTQ+","Physical illness or Cishet","true",""
"","iat","1658","f","288","503011","Depression","Mental illness","Mental illness or LGBTQ+","Mental illness or LGBTQ+","Physical illness or Cishet","true",""
"","iat","1573","f","290","504838","Anxiety","Mental illness","Mental illness or LGBTQ+","Mental illness or LGBTQ+","Physical illness or Cishet","true",""
"","iat","994","j","292","506086","Traditional","Cishet","Physical illness or Cishet","Mental illness or LGBTQ+","Physical illness or Cishet","true",""
"","iat","1323","f","294","507662","Diversity","LGBTQ+","Mental illness or LGBTQ+","Mental illness or LGBTQ+","Physical illness or Cishet","true",""
"","Questionnaire","102126","{""question1"":1,""question2"":3,""question3"":1,""question4"":0,""question5"":3,""question6"":4,""question7"":4,""question8"":1,""question9"":1,""question10"":4,""question11"":1,""question12"":3,""question13"":3,""question14"":4,""question15"":1}","296","610248","","","","","","","[0,1,2,3,4,5,6,7,8,9,10,11,12,13,14]"
