"whichPrime","trialType","rt","response","trial_index","time_elapsed","word","expectedCategory","expectedCategoryAsDisplayed","leftCategory","rightCategory","correct","question_order"
"CisHet","prime","22165"," ","2","32573","","","","","","",""
"","iat","4239","j","5","49670","Genderqueer","LGBTQ+","LGBTQ+","Cishet","LGBTQ+","true",""
"","iat","4693","j","7","54618","Genderqueer","LGBTQ+","LGBTQ+","Cishet","LGBTQ+","true",""
"","iat","1422","j","9","56295","Pansexual","LGBTQ+","LGBTQ+","Cishet","LGBTQ+","true",""
"","iat","2644","j","11","59194","Inclusivity","LGBTQ+","LGBTQ+","Cishet","LGBTQ+","true",""
"","iat","2406","j","13","61853","Diversity","LGBTQ+","LGBTQ+","Cishet","LGBTQ+","true",""
"","iat","3809","j","15","65913","Pansexual","LGBTQ+","LGBTQ+","Cishet","LGBTQ+","true",""
"","iat","2813","f","17","68979","Biological","Cishet","Cishet","Cishet","LGBTQ+","true",""
"","iat","3431","j","19","72663","Androgynous","LGBTQ+","LGBTQ+","Cishet","LGBTQ+","true",""
"","iat","930","j","21","73848","Bisexual","LGBTQ+","LGBTQ+","Cishet","LGBTQ+","true",""
"","iat","1674","f","23","75776","Hetero","Cishet","Cishet","Cishet","LGBTQ+","true",""
"","iat","5662","f","25","81693","Inclusivity","LGBTQ+","LGBTQ+","Cishet","LGBTQ+","false",""
"","iat","2458","f","27","84405","Cissexual","Cishet","Cishet","Cishet","LGBTQ+","true",""
"","iat","1678","f","29","86336","Traditional","Cishet","Cishet","Cishet","LGBTQ+","true",""
"","iat","1344","j","31","87934","Diversity","LGBTQ+","LGBTQ+","Cishet","LGBTQ+","true",""
"","iat","2251","f","33","90439","Heteronormative","Cishet","Cishet","Cishet","LGBTQ+","true",""
"","iat","1658","f","35","92351","Heterosexual","Cishet","Cishet","Cishet","LGBTQ+","true",""
"","iat","1115","j","37","93721","Transgender","LGBTQ+","LGBTQ+","Cishet","LGBTQ+","true",""
"","iat","2553","f","39","96529","Cisgendered","Cishet","Cishet","Cishet","LGBTQ+","true",""
"","iat","2166","j","41","98949","Queerness","LGBTQ+","LGBTQ+","Cishet","LGBTQ+","true",""
"","iat","1459","f","43","100662","Hetero","Cishet","Cishet","Cishet","LGBTQ+","true",""
"","iat","2205","j","45","103120","Bisexual","LGBTQ+","LGBTQ+","Cishet","LGBTQ+","true",""
"","iat","2441","f","47","105815","Straight","Cishet","Cishet","Cishet","LGBTQ+","true",""
"","iat","2305","f","49","108374","Usual","Cishet","Cishet","Cishet","LGBTQ+","true",""
"","iat","1504","f","51","110131","Traditional","Cishet","Cishet","Cishet","LGBTQ+","true",""
"","iat","1252","f","53","111636","Cissexual","Cishet","Cishet","Cishet","LGBTQ+","true",""
"","iat","8632","f","55","120523","Cisgendered","Cishet","Cishet","Cishet","LGBTQ+","true",""
"","iat","1538","j","57","122316","Fluidity","LGBTQ+","LGBTQ+","Cishet","LGBTQ+","true",""
"","iat","3595","j","59","126164","Nonbinary","LGBTQ+","LGBTQ+","Cishet","LGBTQ+","true",""
"","iat","3035","f","61","129455","Straight","Cishet","Cishet","Cishet","LGBTQ+","true",""
"","iat","1252","j","63","130960","Transgender","LGBTQ+","LGBTQ+","Cishet","LGBTQ+","true",""
"","iat","5553","j","65","136767","Queerness","LGBTQ+","LGBTQ+","Cishet","LGBTQ+","true",""
"","iat","2501","f","67","139522","Conformity","Cishet","Cishet","Cishet","LGBTQ+","true",""
"","iat","1796","f","69","141572","Biological","Cishet","Cishet","Cishet","LGBTQ+","true",""
"","iat","4334","f","71","146159","Heteronormative","Cishet","Cishet","Cishet","LGBTQ+","true",""
"","iat","14951","j","73","161367","Androgynous","LGBTQ+","LGBTQ+","Cishet","LGBTQ+","true",""
"","iat","3671","f","75","165295","Heterosexual","Cishet","Cishet","Cishet","LGBTQ+","true",""
"","iat","2076","j","78","179351","Migraine","Physical illness","Physical illness","Mental illness","Physical illness","true",""
"","iat","1994","f","80","181601","Bipolar Disorder","Mental illness","Mental illness","Mental illness","Physical illness","true",""
"","iat","5105","j","82","186960","Anorexia","Mental illness","Mental illness","Mental illness","Physical illness","false",""
"","iat","1986","f","84","189201","Bipolar Disorder","Mental illness","Mental illness","Mental illness","Physical illness","true",""
"","iat","1865","j","86","191319","Migraine","Physical illness","Physical illness","Mental illness","Physical illness","true",""
"","iat","1536","f","88","193110","Depression","Mental illness","Mental illness","Mental illness","Physical illness","true",""
"","iat","1399","f","90","194763","Schizophrenia","Mental illness","Mental illness","Mental illness","Physical illness","true",""
"","iat","1809","f","92","196827","Anxiety","Mental illness","Mental illness","Mental illness","Physical illness","true",""
"","iat","1229","j","94","198309","Leukemia","Physical illness","Physical illness","Mental illness","Physical illness","true",""
"","iat","1112","j","96","199676","Pneumonia","Physical illness","Physical illness","Mental illness","Physical illness","true",""
"","iat","1057","j","98","200987","Common Cold","Physical illness","Physical illness","Mental illness","Physical illness","true",""
"","iat","1116","j","100","202358","Arthritis","Physical illness","Physical illness","Mental illness","Physical illness","true",""
"","iat","942","j","102","203554","Influenza","Physical illness","Physical illness","Mental illness","Physical illness","true",""
"","iat","855","j","104","204662","Influenza","Physical illness","Physical illness","Mental illness","Physical illness","true",""
"","iat","1109","f","106","206024","Psychosis","Mental illness","Mental illness","Mental illness","Physical illness","true",""
"","iat","1853","j","108","208131","Arthritis","Physical illness","Physical illness","Mental illness","Physical illness","true",""
"","iat","1719","j","110","210104","Meningitis","Physical illness","Physical illness","Mental illness","Physical illness","true",""
"","iat","7162","j","112","217521","Asthma","Physical illness","Physical illness","Mental illness","Physical illness","true",""
"","iat","4343","f","114","222117","PTSD","Mental illness","Mental illness","Mental illness","Physical illness","true",""
"","iat","1027","f","116","223399","Panic Disorder","Mental illness","Mental illness","Mental illness","Physical illness","true",""
"","iat","926","j","118","224578","Pneumonia","Physical illness","Physical illness","Mental illness","Physical illness","true",""
"","iat","1102","f","120","225932","Depression","Mental illness","Mental illness","Mental illness","Physical illness","true",""
"","iat","3429","f","122","229615","Panic Disorder","Mental illness","Mental illness","Mental illness","Physical illness","true",""
"","iat","744","j","124","230613","Leukemia","Physical illness","Physical illness","Mental illness","Physical illness","true",""
"","iat","819","f","126","231686","OCD","Mental illness","Mental illness","Mental illness","Physical illness","true",""
"","iat","827","f","128","232766","Schizophrenia","Mental illness","Mental illness","Mental illness","Physical illness","true",""
"","iat","692","f","130","233712","Anxiety","Mental illness","Mental illness","Mental illness","Physical illness","true",""
"","iat","915","j","132","234882","Diabetes","Physical illness","Physical illness","Mental illness","Physical illness","true",""
"","iat","2045","f","134","237181","OCD","Mental illness","Mental illness","Mental illness","Physical illness","true",""
"","iat","3486","j","136","240922","Diabetes","Physical illness","Physical illness","Mental illness","Physical illness","true",""
"","iat","3810","f","138","244986","PTSD","Mental illness","Mental illness","Mental illness","Physical illness","true",""
"","iat","2329","f","140","247570","Autism","Mental illness","Mental illness","Mental illness","Physical illness","true",""
"","iat","7008","f","142","254832","Psychosis","Mental illness","Mental illness","Mental illness","Physical illness","true",""
"","iat","1689","j","144","256776","Epilepsy","Physical illness","Physical illness","Mental illness","Physical illness","true",""
"","iat","1152","j","146","258183","Common Cold","Physical illness","Physical illness","Mental illness","Physical illness","true",""
"","iat","1018","j","148","259455","Meningitis","Physical illness","Physical illness","Mental illness","Physical illness","true",""
"","iat","5593","j","151","282617","Biological","Cishet","Physical illness or Cishet","Mental illness or LGBTQ+","Physical illness or Cishet","true",""
"","iat","1275","j","153","284147","Straight","Cishet","Physical illness or Cishet","Mental illness or LGBTQ+","Physical illness or Cishet","true",""
"","iat","7724","j","155","292125","Diversity","LGBTQ+","Mental illness or LGBTQ+","Mental illness or LGBTQ+","Physical illness or Cishet","false",""
"","iat","7399","f","157","299779","Transgender","LGBTQ+","Mental illness or LGBTQ+","Mental illness or LGBTQ+","Physical illness or Cishet","true",""
"","iat","2564","j","159","302597","Meningitis","Physical illness","Physical illness or Cishet","Mental illness or LGBTQ+","Physical illness or Cishet","true",""
"","iat","1228","f","161","304079","Anxiety","Mental illness","Mental illness or LGBTQ+","Mental illness or LGBTQ+","Physical illness or Cishet","true",""
"","iat","2093","j","163","306426","Autism","Mental illness","Mental illness or LGBTQ+","Mental illness or LGBTQ+","Physical illness or Cishet","false",""
"","iat","6511","f","165","313192","Psychosis","Mental illness","Mental illness or LGBTQ+","Mental illness or LGBTQ+","Physical illness or Cishet","true",""
"","iat","1498","f","167","314944","Queerness","LGBTQ+","Mental illness or LGBTQ+","Mental illness or LGBTQ+","Physical illness or Cishet","true",""
"","iat","1915","j","169","317114","Asthma","Physical illness","Physical illness or Cishet","Mental illness or LGBTQ+","Physical illness or Cishet","true",""
"","iat","4500","j","171","321869","Hetero","Cishet","Physical illness or Cishet","Mental illness or LGBTQ+","Physical illness or Cishet","true",""
"","iat","2701","f","173","324825","Depression","Mental illness","Mental illness or LGBTQ+","Mental illness or LGBTQ+","Physical illness or Cishet","true",""
"","iat","2614","j","175","327692","Usual","Cishet","Physical illness or Cishet","Mental illness or LGBTQ+","Physical illness or Cishet","true",""
"","iat","7012","j","177","334958","Pneumonia","Physical illness","Physical illness or Cishet","Mental illness or LGBTQ+","Physical illness or Cishet","true",""
"","iat","875","j","179","336087","Arthritis","Physical illness","Physical illness or Cishet","Mental illness or LGBTQ+","Physical illness or Cishet","true",""
"","iat","1310","f","181","337651","Bisexual","LGBTQ+","Mental illness or LGBTQ+","Mental illness or LGBTQ+","Physical illness or Cishet","true",""
"","iat","3020","j","183","340923","Common Cold","Physical illness","Physical illness or Cishet","Mental illness or LGBTQ+","Physical illness or Cishet","true",""
"","iat","1800","j","185","342978","Influenza","Physical illness","Physical illness or Cishet","Mental illness or LGBTQ+","Physical illness or Cishet","true",""
"","iat","4130","j","187","347362","Cissexual","Cishet","Physical illness or Cishet","Mental illness or LGBTQ+","Physical illness or Cishet","true",""
"","iat","3689","f","189","351304","Schizophrenia","Mental illness","Mental illness or LGBTQ+","Mental illness or LGBTQ+","Physical illness or Cishet","true",""
"","iat","932","j","191","352490","Leukemia","Physical illness","Physical illness or Cishet","Mental illness or LGBTQ+","Physical illness or Cishet","true",""
"","iat","2361","f","193","355105","Panic Disorder","Mental illness","Mental illness or LGBTQ+","Mental illness or LGBTQ+","Physical illness or Cishet","true",""
"","iat","2112","j","195","357472","Migraine","Physical illness","Physical illness or Cishet","Mental illness or LGBTQ+","Physical illness or Cishet","true",""
"","iat","2218","j","197","359944","Diabetes","Physical illness","Physical illness or Cishet","Mental illness or LGBTQ+","Physical illness or Cishet","true",""
"","iat","2892","j","199","363090","Cisgendered","Cishet","Physical illness or Cishet","Mental illness or LGBTQ+","Physical illness or Cishet","true",""
"","iat","1314","f","201","364658","Pansexual","LGBTQ+","Mental illness or LGBTQ+","Mental illness or LGBTQ+","Physical illness or Cishet","true",""
"","iat","3223","f","203","368135","Genderqueer","LGBTQ+","Mental illness or LGBTQ+","Mental illness or LGBTQ+","Physical illness or Cishet","true",""
"","iat","2152","f","205","370541","Androgynous","LGBTQ+","Mental illness or LGBTQ+","Mental illness or LGBTQ+","Physical illness or Cishet","true",""
"","iat","9017","f","207","379812","Nonbinary","LGBTQ+","Mental illness or LGBTQ+","Mental illness or LGBTQ+","Physical illness or Cishet","true",""
"","iat","8293","f","209","388357","Anorexia","Mental illness","Mental illness or LGBTQ+","Mental illness or LGBTQ+","Physical illness or Cishet","true",""
"","iat","7590","j","211","396202","Traditional","Cishet","Physical illness or Cishet","Mental illness or LGBTQ+","Physical illness or Cishet","true",""
"","iat","26190","j","213","422646","Heteronormative","Cishet","Physical illness or Cishet","Mental illness or LGBTQ+","Physical illness or Cishet","true",""
"","iat","2880","j","215","425781","Heterosexual","Cishet","Physical illness or Cishet","Mental illness or LGBTQ+","Physical illness or Cishet","true",""
"","iat","1859","f","217","427894","Inclusivity","LGBTQ+","Mental illness or LGBTQ+","Mental illness or LGBTQ+","Physical illness or Cishet","true",""
"","iat","929","f","219","429078","OCD","Mental illness","Mental illness or LGBTQ+","Mental illness or LGBTQ+","Physical illness or Cishet","true",""
"","iat","1031","f","221","430363","Fluidity","LGBTQ+","Mental illness or LGBTQ+","Mental illness or LGBTQ+","Physical illness or Cishet","true",""
"","iat","66336","j","224","526083","Heterosexual","Cishet","Mental illness or Cishet","Physical illness or LGBTQ+","Mental illness or Cishet","true",""
"","iat","2073","f","226","528411","Queerness","LGBTQ+","Physical illness or LGBTQ+","Physical illness or LGBTQ+","Mental illness or Cishet","true",""
"","iat","1263","f","228","529927","Bisexual","LGBTQ+","Physical illness or LGBTQ+","Physical illness or LGBTQ+","Mental illness or Cishet","true",""
"","iat","3131","f","230","533313","Androgynous","LGBTQ+","Physical illness or LGBTQ+","Physical illness or LGBTQ+","Mental illness or Cishet","true",""
"","iat","2807","f","232","536374","Migraine","Physical illness","Physical illness or LGBTQ+","Physical illness or LGBTQ+","Mental illness or Cishet","true",""
"","iat","20761","j","234","557389","Biological","Cishet","Mental illness or Cishet","Physical illness or LGBTQ+","Mental illness or Cishet","true",""
"","iat","3071","f","236","560714","Pansexual","LGBTQ+","Physical illness or LGBTQ+","Physical illness or LGBTQ+","Mental illness or Cishet","true",""
"","iat","2100","j","238","563068","Usual","Cishet","Mental illness or Cishet","Physical illness or LGBTQ+","Mental illness or Cishet","true",""
"","iat","1766","j","240","565089","Schizophrenia","Mental illness","Mental illness or Cishet","Physical illness or LGBTQ+","Mental illness or Cishet","true",""
"","iat","1490","j","242","566834","OCD","Mental illness","Mental illness or Cishet","Physical illness or LGBTQ+","Mental illness or Cishet","true",""
"","iat","1053","f","244","568140","Influenza","Physical illness","Physical illness or LGBTQ+","Physical illness or LGBTQ+","Mental illness or Cishet","true",""
"","iat","3136","j","246","571531","Straight","Cishet","Mental illness or Cishet","Physical illness or LGBTQ+","Mental illness or Cishet","true",""
"","iat","6807","j","248","578591","Depression","Mental illness","Mental illness or Cishet","Physical illness or LGBTQ+","Mental illness or Cishet","true",""
"","iat","1083","f","250","579928","Transgender","LGBTQ+","Physical illness or LGBTQ+","Physical illness or LGBTQ+","Mental illness or Cishet","true",""
"","iat","2224","j","252","582407","Panic Disorder","Mental illness","Mental illness or Cishet","Physical illness or LGBTQ+","Mental illness or Cishet","true",""
"","iat","8128","f","254","590788","Anorexia","Mental illness","Mental illness or Cishet","Physical illness or LGBTQ+","Mental illness or Cishet","false",""
"","iat","4575","j","256","595619","Cissexual","Cishet","Mental illness or Cishet","Physical illness or LGBTQ+","Mental illness or Cishet","true",""
"","iat","881","j","258","596755","Cisgendered","Cishet","Mental illness or Cishet","Physical illness or LGBTQ+","Mental illness or Cishet","true",""
"","iat","2129","f","260","599139","Leukemia","Physical illness","Physical illness or LGBTQ+","Physical illness or LGBTQ+","Mental illness or Cishet","true",""
"","iat","4712","f","262","604106","Diversity","LGBTQ+","Physical illness or LGBTQ+","Physical illness or LGBTQ+","Mental illness or Cishet","true",""
"","iat","8831","j","264","613190","Bipolar Disorder","Mental illness","Mental illness or Cishet","Physical illness or LGBTQ+","Mental illness or Cishet","true",""
"","iat","845","f","266","614289","Pneumonia","Physical illness","Physical illness or LGBTQ+","Physical illness or LGBTQ+","Mental illness or Cishet","true",""
"","iat","1268","j","268","615811","PTSD","Mental illness","Mental illness or Cishet","Physical illness or LGBTQ+","Mental illness or Cishet","true",""
"","iat","985","f","270","617049","Epilepsy","Physical illness","Physical illness or LGBTQ+","Physical illness or LGBTQ+","Mental illness or Cishet","true",""
"","iat","1344","f","272","618648","Asthma","Physical illness","Physical illness or LGBTQ+","Physical illness or LGBTQ+","Mental illness or Cishet","true",""
"","iat","955","f","274","619857","Diabetes","Physical illness","Physical illness or LGBTQ+","Physical illness or LGBTQ+","Mental illness or Cishet","true",""
"","iat","1325","j","276","621436","Hetero","Cishet","Mental illness or Cishet","Physical illness or LGBTQ+","Mental illness or Cishet","true",""
"","iat","1838","f","278","623529","Inclusivity","LGBTQ+","Physical illness or LGBTQ+","Physical illness or LGBTQ+","Mental illness or Cishet","true",""
"","iat","1047","f","280","624830","Nonbinary","LGBTQ+","Physical illness or LGBTQ+","Physical illness or LGBTQ+","Mental illness or Cishet","true",""
"","iat","1393","f","282","626477","Fluidity","LGBTQ+","Physical illness or LGBTQ+","Physical illness or LGBTQ+","Mental illness or Cishet","true",""
"","iat","1006","j","284","627737","Psychosis","Mental illness","Mental illness or Cishet","Physical illness or LGBTQ+","Mental illness or Cishet","true",""
"","iat","923","f","286","628914","Common Cold","Physical illness","Physical illness or LGBTQ+","Physical illness or LGBTQ+","Mental illness or Cishet","true",""
"","iat","2628","j","288","631795","Autism","Mental illness","Mental illness or Cishet","Physical illness or LGBTQ+","Mental illness or Cishet","true",""
"","iat","2752","j","290","634801","Anxiety","Mental illness","Mental illness or Cishet","Physical illness or LGBTQ+","Mental illness or Cishet","true",""
"","iat","1811","j","292","636867","Heteronormative","Cishet","Mental illness or Cishet","Physical illness or LGBTQ+","Mental illness or Cishet","true",""
"","iat","821","f","294","637942","Genderqueer","LGBTQ+","Physical illness or LGBTQ+","Physical illness or LGBTQ+","Mental illness or Cishet","true",""
"","Questionnaire","821050","{""question1"":1,""question2"":1,""question3"":1,""question4"":1,""question5"":3,""question6"":3,""question7"":3,""question8"":1,""question9"":1,""question10"":3,""question11"":2,""question12"":3,""question13"":3,""question14"":3,""question15"":1}","296","1495343","","","","","","","[0,1,2,3,4,5,6,7,8,9,10,11,12,13,14]"
