"whichPrime","trialType","rt","response","trial_index","time_elapsed","word","expectedCategory","expectedCategoryAsDisplayed","leftCategory","rightCategory","correct","question_order"
"Control","prime","53095"," ","2","77568","","","","","","",""
"","iat","1973","f","5","89686","Influenza","Physical illness","Physical illness","Physical illness","Mental illness","true",""
"","iat","1618","f","7","91558","Migraine","Physical illness","Physical illness","Physical illness","Mental illness","true",""
"","iat","647","j","9","92460","Panic Disorder","Mental illness","Mental illness","Physical illness","Mental illness","true",""
"","iat","888","f","11","93602","Arthritis","Physical illness","Physical illness","Physical illness","Mental illness","true",""
"","iat","686","j","13","94543","Schizophrenia","Mental illness","Mental illness","Physical illness","Mental illness","true",""
"","iat","686","f","15","95484","Leukemia","Physical illness","Physical illness","Physical illness","Mental illness","true",""
"","iat","666","j","17","96404","Panic Disorder","Mental illness","Mental illness","Physical illness","Mental illness","true",""
"","iat","637","j","19","97296","Autism","Mental illness","Mental illness","Physical illness","Mental illness","true",""
"","iat","655","j","21","98205","PTSD","Mental illness","Mental illness","Physical illness","Mental illness","true",""
"","iat","949","j","23","99408","Depression","Mental illness","Mental illness","Physical illness","Mental illness","true",""
"","iat","672","f","25","100334","Asthma","Physical illness","Physical illness","Physical illness","Mental illness","true",""
"","iat","692","f","27","101279","Meningitis","Physical illness","Physical illness","Physical illness","Mental illness","true",""
"","iat","588","f","29","102122","Meningitis","Physical illness","Physical illness","Physical illness","Mental illness","true",""
"","iat","671","j","31","103048","Anxiety","Mental illness","Mental illness","Physical illness","Mental illness","true",""
"","iat","773","f","33","104076","Diabetes","Physical illness","Physical illness","Physical illness","Mental illness","true",""
"","iat","630","j","35","104961","Psychosis","Mental illness","Mental illness","Physical illness","Mental illness","true",""
"","iat","747","f","37","105963","Common Cold","Physical illness","Physical illness","Physical illness","Mental illness","true",""
"","iat","787","f","39","107004","Pneumonia","Physical illness","Physical illness","Physical illness","Mental illness","true",""
"","iat","701","f","41","107959","Influenza","Physical illness","Physical illness","Physical illness","Mental illness","true",""
"","iat","604","f","43","108817","Arthritis","Physical illness","Physical illness","Physical illness","Mental illness","true",""
"","iat","618","f","45","109690","Pneumonia","Physical illness","Physical illness","Physical illness","Mental illness","true",""
"","iat","899","j","47","110844","Epilepsy","Physical illness","Physical illness","Physical illness","Mental illness","false",""
"","iat","624","f","49","111723","Epilepsy","Physical illness","Physical illness","Physical illness","Mental illness","true",""
"","iat","908","j","51","112886","OCD","Mental illness","Mental illness","Physical illness","Mental illness","true",""
"","iat","624","j","53","113765","Bipolar Disorder","Mental illness","Mental illness","Physical illness","Mental illness","true",""
"","iat","719","f","55","114737","Diabetes","Physical illness","Physical illness","Physical illness","Mental illness","true",""
"","iat","789","f","57","115781","Anorexia","Mental illness","Mental illness","Physical illness","Mental illness","false",""
"","iat","1400","f","59","117436","Asthma","Physical illness","Physical illness","Physical illness","Mental illness","true",""
"","iat","730","j","61","118421","OCD","Mental illness","Mental illness","Physical illness","Mental illness","true",""
"","iat","1553","j","63","120229","Bipolar Disorder","Mental illness","Mental illness","Physical illness","Mental illness","true",""
"","iat","1179","j","65","121662","Autism","Mental illness","Mental illness","Physical illness","Mental illness","true",""
"","iat","678","j","67","122595","Depression","Mental illness","Mental illness","Physical illness","Mental illness","true",""
"","iat","568","j","69","123417","PTSD","Mental illness","Mental illness","Physical illness","Mental illness","true",""
"","iat","587","j","71","124259","Anorexia","Mental illness","Mental illness","Physical illness","Mental illness","true",""
"","iat","748","j","73","125260","Psychosis","Mental illness","Mental illness","Physical illness","Mental illness","true",""
"","iat","638","f","75","126153","Leukemia","Physical illness","Physical illness","Physical illness","Mental illness","true",""
"","iat","1688","j","78","132206","Genderqueer","LGBTQ+","LGBTQ+","Cishet","LGBTQ+","true",""
"","iat","971","f","80","133431","Cisgendered","Cishet","Cishet","Cishet","LGBTQ+","true",""
"","iat","731","f","82","134415","Hetero","Cishet","Cishet","Cishet","LGBTQ+","true",""
"","iat","738","f","84","135407","Straight","Cishet","Cishet","Cishet","LGBTQ+","true",""
"","iat","879","f","86","136540","Heteronormative","Cishet","Cishet","Cishet","LGBTQ+","true",""
"","iat","878","f","88","137673","Straight","Cishet","Cishet","Cishet","LGBTQ+","true",""
"","iat","1416","j","90","139345","Androgynous","LGBTQ+","LGBTQ+","Cishet","LGBTQ+","true",""
"","iat","714","f","92","140314","Hetero","Cishet","Cishet","Cishet","LGBTQ+","true",""
"","iat","1500","f","94","142067","Biological","Cishet","Cishet","Cishet","LGBTQ+","true",""
"","iat","962","j","96","143282","Fluidity","LGBTQ+","LGBTQ+","Cishet","LGBTQ+","true",""
"","iat","901","j","98","144437","Bisexual","LGBTQ+","LGBTQ+","Cishet","LGBTQ+","true",""
"","iat","653","j","100","145344","Nonbinary","LGBTQ+","LGBTQ+","Cishet","LGBTQ+","true",""
"","iat","891","f","102","146490","Usual","Cishet","Cishet","Cishet","LGBTQ+","true",""
"","iat","750","j","104","147495","Genderqueer","LGBTQ+","LGBTQ+","Cishet","LGBTQ+","true",""
"","iat","1569","f","106","149317","Conformity","Cishet","Cishet","Cishet","LGBTQ+","true",""
"","iat","1016","j","108","150587","Inclusivity","LGBTQ+","LGBTQ+","Cishet","LGBTQ+","true",""
"","iat","1323","f","110","152164","Heterosexual","Cishet","Cishet","Cishet","LGBTQ+","true",""
"","iat","1023","f","112","153441","Traditional","Cishet","Cishet","Cishet","LGBTQ+","true",""
"","iat","733","f","114","154429","Heterosexual","Cishet","Cishet","Cishet","LGBTQ+","true",""
"","iat","1275","f","116","155958","Usual","Cishet","Cishet","Cishet","LGBTQ+","true",""
"","iat","751","j","118","156964","Inclusivity","LGBTQ+","LGBTQ+","Cishet","LGBTQ+","true",""
"","iat","1059","j","120","158275","Bisexual","LGBTQ+","LGBTQ+","Cishet","LGBTQ+","true",""
"","iat","901","j","122","159431","Androgynous","LGBTQ+","LGBTQ+","Cishet","LGBTQ+","true",""
"","iat","1774","j","124","161458","Pansexual","LGBTQ+","LGBTQ+","Cishet","LGBTQ+","true",""
"","iat","648","j","126","162360","Queerness","LGBTQ+","LGBTQ+","Cishet","LGBTQ+","true",""
"","iat","796","j","128","163410","Transgender","LGBTQ+","LGBTQ+","Cishet","LGBTQ+","true",""
"","iat","574","j","130","164239","Cisgendered","Cishet","Cishet","Cishet","LGBTQ+","false",""
"","iat","755","f","132","165248","Heteronormative","Cishet","Cishet","Cishet","LGBTQ+","true",""
"","iat","765","j","134","166268","Fluidity","LGBTQ+","LGBTQ+","Cishet","LGBTQ+","true",""
"","iat","1100","j","136","167623","Transgender","LGBTQ+","LGBTQ+","Cishet","LGBTQ+","true",""
"","iat","687","j","138","168565","Pansexual","LGBTQ+","LGBTQ+","Cishet","LGBTQ+","true",""
"","iat","1221","f","140","170041","Conformity","Cishet","Cishet","Cishet","LGBTQ+","true",""
"","iat","832","j","142","171127","Nonbinary","LGBTQ+","LGBTQ+","Cishet","LGBTQ+","true",""
"","iat","1577","f","144","172959","Cissexual","Cishet","Cishet","Cishet","LGBTQ+","true",""
"","iat","1055","f","146","174268","Traditional","Cishet","Cishet","Cishet","LGBTQ+","true",""
"","iat","866","j","148","175388","Diversity","LGBTQ+","LGBTQ+","Cishet","LGBTQ+","true",""
"","iat","912","j","151","180048","Queerness","LGBTQ+","Mental illness or LGBTQ+","Physical illness or Cishet","Mental illness or LGBTQ+","true",""
"","iat","2096","f","153","182398","Usual","Cishet","Physical illness or Cishet","Physical illness or Cishet","Mental illness or LGBTQ+","true",""
"","iat","812","j","155","183464","Autism","Mental illness","Mental illness or LGBTQ+","Physical illness or Cishet","Mental illness or LGBTQ+","true",""
"","iat","1162","j","157","184879","Panic Disorder","Mental illness","Mental illness or LGBTQ+","Physical illness or Cishet","Mental illness or LGBTQ+","true",""
"","iat","841","f","159","185973","Traditional","Cishet","Physical illness or Cishet","Physical illness or Cishet","Mental illness or LGBTQ+","true",""
"","iat","1764","j","161","187990","Diversity","LGBTQ+","Mental illness or LGBTQ+","Physical illness or Cishet","Mental illness or LGBTQ+","true",""
"","iat","1012","f","163","189257","Pneumonia","Physical illness","Physical illness or Cishet","Physical illness or Cishet","Mental illness or LGBTQ+","true",""
"","iat","1357","j","165","190866","Depression","Mental illness","Mental illness or LGBTQ+","Physical illness or Cishet","Mental illness or LGBTQ+","true",""
"","iat","853","f","167","191973","Heterosexual","Cishet","Physical illness or Cishet","Physical illness or Cishet","Mental illness or LGBTQ+","true",""
"","iat","1095","j","169","193323","Inclusivity","LGBTQ+","Mental illness or LGBTQ+","Physical illness or Cishet","Mental illness or LGBTQ+","true",""
"","iat","1191","j","171","194768","Transgender","LGBTQ+","Mental illness or LGBTQ+","Physical illness or Cishet","Mental illness or LGBTQ+","true",""
"","iat","656","j","173","195679","Anorexia","Mental illness","Mental illness or LGBTQ+","Physical illness or Cishet","Mental illness or LGBTQ+","true",""
"","iat","672","j","175","196604","Anxiety","Mental illness","Mental illness or LGBTQ+","Physical illness or Cishet","Mental illness or LGBTQ+","true",""
"","iat","1778","f","177","198635","Migraine","Physical illness","Physical illness or Cishet","Physical illness or Cishet","Mental illness or LGBTQ+","true",""
"","iat","717","f","179","199606","Cisgendered","Cishet","Physical illness or Cishet","Physical illness or Cishet","Mental illness or LGBTQ+","true",""
"","iat","670","f","181","200531","Heteronormative","Cishet","Physical illness or Cishet","Physical illness or Cishet","Mental illness or LGBTQ+","true",""
"","iat","802","f","183","201588","Biological","Cishet","Physical illness or Cishet","Physical illness or Cishet","Mental illness or LGBTQ+","true",""
"","iat","712","f","185","202554","Straight","Cishet","Physical illness or Cishet","Physical illness or Cishet","Mental illness or LGBTQ+","true",""
"","iat","656","f","187","203465","Asthma","Physical illness","Physical illness or Cishet","Physical illness or Cishet","Mental illness or LGBTQ+","true",""
"","iat","1123","j","189","204842","Schizophrenia","Mental illness","Mental illness or LGBTQ+","Physical illness or Cishet","Mental illness or LGBTQ+","true",""
"","iat","731","f","191","205828","Meningitis","Physical illness","Physical illness or Cishet","Physical illness or Cishet","Mental illness or LGBTQ+","true",""
"","iat","906","j","193","206989","Fluidity","LGBTQ+","Mental illness or LGBTQ+","Physical illness or Cishet","Mental illness or LGBTQ+","true",""
"","iat","675","f","195","207919","Hetero","Cishet","Physical illness or Cishet","Physical illness or Cishet","Mental illness or LGBTQ+","true",""
"","iat","916","j","197","209088","Androgynous","LGBTQ+","Mental illness or LGBTQ+","Physical illness or Cishet","Mental illness or LGBTQ+","true",""
"","iat","905","f","199","210249","Cissexual","Cishet","Physical illness or Cishet","Physical illness or Cishet","Mental illness or LGBTQ+","true",""
"","iat","894","f","201","211397","Influenza","Physical illness","Physical illness or Cishet","Physical illness or Cishet","Mental illness or LGBTQ+","true",""
"","iat","728","j","203","212379","Psychosis","Mental illness","Mental illness or LGBTQ+","Physical illness or Cishet","Mental illness or LGBTQ+","true",""
"","iat","677","j","205","213310","Genderqueer","LGBTQ+","Mental illness or LGBTQ+","Physical illness or Cishet","Mental illness or LGBTQ+","true",""
"","iat","820","f","207","214383","Common Cold","Physical illness","Physical illness or Cishet","Physical illness or Cishet","Mental illness or LGBTQ+","true",""
"","iat","839","j","209","215475","Bipolar Disorder","Mental illness","Mental illness or LGBTQ+","Physical illness or Cishet","Mental illness or LGBTQ+","true",""
"","iat","647","j","211","216377","Pansexual","LGBTQ+","Mental illness or LGBTQ+","Physical illness or Cishet","Mental illness or LGBTQ+","true",""
"","iat","820","f","213","217451","Arthritis","Physical illness","Physical illness or Cishet","Physical illness or Cishet","Mental illness or LGBTQ+","true",""
"","iat","675","j","215","218380","Bisexual","LGBTQ+","Mental illness or LGBTQ+","Physical illness or Cishet","Mental illness or LGBTQ+","true",""
"","iat","769","f","217","219403","Diabetes","Physical illness","Physical illness or Cishet","Physical illness or Cishet","Mental illness or LGBTQ+","true",""
"","iat","1088","j","219","220745","Nonbinary","LGBTQ+","Mental illness or LGBTQ+","Physical illness or Cishet","Mental illness or LGBTQ+","true",""
"","iat","1102","f","221","222101","Conformity","Cishet","Physical illness or Cishet","Physical illness or Cishet","Mental illness or LGBTQ+","true",""
"","iat","1977","f","224","228790","Genderqueer","LGBTQ+","Physical illness or LGBTQ+","Physical illness or LGBTQ+","Mental illness or Cishet","true",""
"","iat","1106","j","226","230150","Cisgendered","Cishet","Mental illness or Cishet","Physical illness or LGBTQ+","Mental illness or Cishet","true",""
"","iat","1601","f","228","232005","Leukemia","Physical illness","Physical illness or LGBTQ+","Physical illness or LGBTQ+","Mental illness or Cishet","true",""
"","iat","1412","j","230","233672","Psychosis","Mental illness","Mental illness or Cishet","Physical illness or LGBTQ+","Mental illness or Cishet","true",""
"","iat","994","f","232","234920","Diabetes","Physical illness","Physical illness or LGBTQ+","Physical illness or LGBTQ+","Mental illness or Cishet","true",""
"","iat","922","j","234","236096","Depression","Mental illness","Mental illness or Cishet","Physical illness or LGBTQ+","Mental illness or Cishet","true",""
"","iat","1575","j","236","237924","Fluidity","LGBTQ+","Physical illness or LGBTQ+","Physical illness or LGBTQ+","Mental illness or Cishet","false",""
"","iat","1975","j","238","240153","Heterosexual","Cishet","Mental illness or Cishet","Physical illness or LGBTQ+","Mental illness or Cishet","true",""
"","iat","3193","f","240","243601","Biological","Cishet","Mental illness or Cishet","Physical illness or LGBTQ+","Mental illness or Cishet","false",""
"","iat","2312","j","242","246167","Schizophrenia","Mental illness","Mental illness or Cishet","Physical illness or LGBTQ+","Mental illness or Cishet","true",""
"","iat","3240","f","244","249662","Meningitis","Physical illness","Physical illness or LGBTQ+","Physical illness or LGBTQ+","Mental illness or Cishet","true",""
"","iat","933","f","246","250849","Androgynous","LGBTQ+","Physical illness or LGBTQ+","Physical illness or LGBTQ+","Mental illness or Cishet","true",""
"","iat","720","f","248","251823","Pansexual","LGBTQ+","Physical illness or LGBTQ+","Physical illness or LGBTQ+","Mental illness or Cishet","true",""
"","iat","713","f","250","252790","Queerness","LGBTQ+","Physical illness or LGBTQ+","Physical illness or LGBTQ+","Mental illness or Cishet","true",""
"","iat","838","j","252","253883","Asthma","Physical illness","Physical illness or LGBTQ+","Physical illness or LGBTQ+","Mental illness or Cishet","false",""
"","iat","1959","f","254","256095","Common Cold","Physical illness","Physical illness or LGBTQ+","Physical illness or LGBTQ+","Mental illness or Cishet","true",""
"","iat","940","j","256","257289","Anxiety","Mental illness","Mental illness or Cishet","Physical illness or LGBTQ+","Mental illness or Cishet","true",""
"","iat","2916","f","258","260459","Pneumonia","Physical illness","Physical illness or LGBTQ+","Physical illness or LGBTQ+","Mental illness or Cishet","true",""
"","iat","914","j","260","261627","Cissexual","Cishet","Mental illness or Cishet","Physical illness or LGBTQ+","Mental illness or Cishet","true",""
"","iat","1009","f","262","262891","Inclusivity","LGBTQ+","Physical illness or LGBTQ+","Physical illness or LGBTQ+","Mental illness or Cishet","true",""
"","iat","1127","j","264","264271","Panic Disorder","Mental illness","Mental illness or Cishet","Physical illness or LGBTQ+","Mental illness or Cishet","true",""
"","iat","1288","j","266","265813","Heteronormative","Cishet","Mental illness or Cishet","Physical illness or LGBTQ+","Mental illness or Cishet","true",""
"","iat","1108","j","268","267173","PTSD","Mental illness","Mental illness or Cishet","Physical illness or LGBTQ+","Mental illness or Cishet","true",""
"","iat","960","j","270","268387","Usual","Cishet","Mental illness or Cishet","Physical illness or LGBTQ+","Mental illness or Cishet","true",""
"","iat","1022","j","272","269663","Hetero","Cishet","Mental illness or Cishet","Physical illness or LGBTQ+","Mental illness or Cishet","true",""
"","iat","1644","j","274","271562","Bipolar Disorder","Mental illness","Mental illness or Cishet","Physical illness or LGBTQ+","Mental illness or Cishet","true",""
"","iat","679","j","276","272495","OCD","Mental illness","Mental illness or Cishet","Physical illness or LGBTQ+","Mental illness or Cishet","true",""
"","iat","713","f","278","273462","Migraine","Physical illness","Physical illness or LGBTQ+","Physical illness or LGBTQ+","Mental illness or Cishet","true",""
"","iat","686","f","280","274403","Arthritis","Physical illness","Physical illness or LGBTQ+","Physical illness or LGBTQ+","Mental illness or Cishet","true",""
"","iat","835","j","282","275492","Nonbinary","LGBTQ+","Physical illness or LGBTQ+","Physical illness or LGBTQ+","Mental illness or Cishet","false",""
"","iat","2087","f","284","277833","Influenza","Physical illness","Physical illness or LGBTQ+","Physical illness or LGBTQ+","Mental illness or Cishet","true",""
"","iat","725","f","286","278812","Anorexia","Mental illness","Mental illness or Cishet","Physical illness or LGBTQ+","Mental illness or Cishet","false",""
"","iat","1236","j","288","280303","Straight","Cishet","Mental illness or Cishet","Physical illness or LGBTQ+","Mental illness or Cishet","true",""
"","iat","1364","j","290","281922","Traditional","Cishet","Mental illness or Cishet","Physical illness or LGBTQ+","Mental illness or Cishet","true",""
"","iat","1327","f","292","283503","Epilepsy","Physical illness","Physical illness or LGBTQ+","Physical illness or LGBTQ+","Mental illness or Cishet","true",""
"","iat","678","f","294","284436","Bisexual","LGBTQ+","Physical illness or LGBTQ+","Physical illness or LGBTQ+","Mental illness or Cishet","true",""
"","Questionnaire","84544","{""question1"":1,""question2"":1,""question3"":1,""question4"":0,""question5"":1,""question6"":3,""question7"":3,""question8"":0,""question9"":0,""question10"":4,""question11"":0,""question12"":4,""question13"":4,""question14"":4,""question15"":0}","296","369252","","","","","","","[0,1,2,3,4,5,6,7,8,9,10,11,12,13,14]"
