"whichPrime","trialType","rt","response","trial_index","time_elapsed","word","expectedCategory","expectedCategoryAsDisplayed","leftCategory","rightCategory","correct","question_order"
"Queer","prime","58854"," ","2","98457","","","","","","",""
"","iat","1733","j","5","123875","Asthma","Physical illness","Physical illness","Physical illness","Mental illness","false",""
"","iat","5728","f","7","129859","Common Cold","Physical illness","Physical illness","Physical illness","Mental illness","true",""
"","iat","1333","j","9","131448","Autism","Mental illness","Mental illness","Physical illness","Mental illness","true",""
"","iat","853","f","11","132557","Arthritis","Physical illness","Physical illness","Physical illness","Mental illness","true",""
"","iat","2204","j","13","135016","PTSD","Mental illness","Mental illness","Physical illness","Mental illness","true",""
"","iat","955","j","15","136226","Panic Disorder","Mental illness","Mental illness","Physical illness","Mental illness","true",""
"","iat","767","j","17","137248","Bipolar Disorder","Mental illness","Mental illness","Physical illness","Mental illness","true",""
"","iat","815","f","19","138318","Influenza","Physical illness","Physical illness","Physical illness","Mental illness","true",""
"","iat","799","j","21","139373","Psychosis","Mental illness","Mental illness","Physical illness","Mental illness","true",""
"","iat","948","f","23","140577","Arthritis","Physical illness","Physical illness","Physical illness","Mental illness","true",""
"","iat","1185","f","25","142017","Meningitis","Physical illness","Physical illness","Physical illness","Mental illness","true",""
"","iat","645","j","27","142917","PTSD","Mental illness","Mental illness","Physical illness","Mental illness","true",""
"","iat","945","f","29","144115","Migraine","Physical illness","Physical illness","Physical illness","Mental illness","true",""
"","iat","867","j","31","145237","OCD","Mental illness","Mental illness","Physical illness","Mental illness","true",""
"","iat","789","f","33","146281","Pneumonia","Physical illness","Physical illness","Physical illness","Mental illness","true",""
"","iat","927","j","35","147463","Panic Disorder","Mental illness","Mental illness","Physical illness","Mental illness","true",""
"","iat","996","j","37","148714","Schizophrenia","Mental illness","Mental illness","Physical illness","Mental illness","true",""
"","iat","839","j","39","149809","Psychosis","Mental illness","Mental illness","Physical illness","Mental illness","true",""
"","iat","609","j","41","150673","OCD","Mental illness","Mental illness","Physical illness","Mental illness","true",""
"","iat","623","f","43","151551","Meningitis","Physical illness","Physical illness","Physical illness","Mental illness","true",""
"","iat","774","j","45","152581","Anxiety","Mental illness","Mental illness","Physical illness","Mental illness","true",""
"","iat","668","j","47","153504","Anxiety","Mental illness","Mental illness","Physical illness","Mental illness","true",""
"","iat","1306","f","49","155064","Epilepsy","Physical illness","Physical illness","Physical illness","Mental illness","true",""
"","iat","732","j","51","156050","Depression","Mental illness","Mental illness","Physical illness","Mental illness","true",""
"","iat","1251","f","53","157556","Leukemia","Physical illness","Physical illness","Physical illness","Mental illness","true",""
"","iat","930","f","55","158741","Influenza","Physical illness","Physical illness","Physical illness","Mental illness","true",""
"","iat","635","f","57","159630","Epilepsy","Physical illness","Physical illness","Physical illness","Mental illness","true",""
"","iat","641","f","59","160524","Diabetes","Physical illness","Physical illness","Physical illness","Mental illness","true",""
"","iat","630","f","61","161407","Pneumonia","Physical illness","Physical illness","Physical illness","Mental illness","true",""
"","iat","916","j","63","162578","Schizophrenia","Mental illness","Mental illness","Physical illness","Mental illness","true",""
"","iat","1215","f","65","164048","Common Cold","Physical illness","Physical illness","Physical illness","Mental illness","true",""
"","iat","758","j","67","165060","Anorexia","Mental illness","Mental illness","Physical illness","Mental illness","true",""
"","iat","683","f","69","165996","Migraine","Physical illness","Physical illness","Physical illness","Mental illness","true",""
"","iat","598","j","71","166847","Bipolar Disorder","Mental illness","Mental illness","Physical illness","Mental illness","true",""
"","iat","880","f","73","167983","Asthma","Physical illness","Physical illness","Physical illness","Mental illness","true",""
"","iat","626","j","75","168863","Autism","Mental illness","Mental illness","Physical illness","Mental illness","true",""
"","iat","1319","f","78","182119","Heterosexual","Cishet","Cishet","Cishet","LGBTQ+","true",""
"","iat","2608","f","80","184980","Cissexual","Cishet","Cishet","Cishet","LGBTQ+","true",""
"","iat","6499","f","82","191735","Heterosexual","Cishet","Cishet","Cishet","LGBTQ+","true",""
"","iat","1034","j","84","193023","Queerness","LGBTQ+","LGBTQ+","Cishet","LGBTQ+","true",""
"","iat","988","j","86","194266","Bisexual","LGBTQ+","LGBTQ+","Cishet","LGBTQ+","true",""
"","iat","1443","f","88","195965","Hetero","Cishet","Cishet","Cishet","LGBTQ+","true",""
"","iat","851","f","90","197071","Hetero","Cishet","Cishet","Cishet","LGBTQ+","true",""
"","iat","1956","f","92","199282","Usual","Cishet","Cishet","Cishet","LGBTQ+","true",""
"","iat","1971","j","94","201509","Transgender","LGBTQ+","LGBTQ+","Cishet","LGBTQ+","true",""
"","iat","1053","j","96","202817","Androgynous","LGBTQ+","LGBTQ+","Cishet","LGBTQ+","true",""
"","iat","1112","f","98","204184","Straight","Cishet","Cishet","Cishet","LGBTQ+","true",""
"","iat","1010","j","100","205449","Nonbinary","LGBTQ+","LGBTQ+","Cishet","LGBTQ+","true",""
"","iat","1056","f","102","206760","Heteronormative","Cishet","Cishet","Cishet","LGBTQ+","true",""
"","iat","1004","j","104","208017","Nonbinary","LGBTQ+","LGBTQ+","Cishet","LGBTQ+","true",""
"","iat","788","f","106","209061","Heteronormative","Cishet","Cishet","Cishet","LGBTQ+","true",""
"","iat","1710","f","108","211027","Cisgendered","Cishet","Cishet","Cishet","LGBTQ+","true",""
"","iat","931","f","110","212212","Biological","Cishet","Cishet","Cishet","LGBTQ+","true",""
"","iat","1333","f","112","213798","Usual","Cishet","Cishet","Cishet","LGBTQ+","true",""
"","iat","1529","j","114","215581","Diversity","LGBTQ+","LGBTQ+","Cishet","LGBTQ+","true",""
"","iat","1014","f","116","216850","Biological","Cishet","Cishet","Cishet","LGBTQ+","true",""
"","iat","767","j","118","217873","Pansexual","LGBTQ+","LGBTQ+","Cishet","LGBTQ+","true",""
"","iat","1118","f","120","219243","Straight","Cishet","Cishet","Cishet","LGBTQ+","true",""
"","iat","1043","j","122","220541","Genderqueer","LGBTQ+","LGBTQ+","Cishet","LGBTQ+","true",""
"","iat","741","j","124","221537","Queerness","LGBTQ+","LGBTQ+","Cishet","LGBTQ+","true",""
"","iat","1122","j","126","222916","Inclusivity","LGBTQ+","LGBTQ+","Cishet","LGBTQ+","true",""
"","iat","1194","f","128","224364","Traditional","Cishet","Cishet","Cishet","LGBTQ+","true",""
"","iat","1034","j","130","225652","Transgender","LGBTQ+","LGBTQ+","Cishet","LGBTQ+","true",""
"","iat","1671","f","132","227578","Conformity","Cishet","Cishet","Cishet","LGBTQ+","true",""
"","iat","1178","j","134","229011","Fluidity","LGBTQ+","LGBTQ+","Cishet","LGBTQ+","true",""
"","iat","984","f","136","230251","Conformity","Cishet","Cishet","Cishet","LGBTQ+","true",""
"","iat","723","j","138","231230","Pansexual","LGBTQ+","LGBTQ+","Cishet","LGBTQ+","true",""
"","iat","2581","j","140","234065","Bisexual","LGBTQ+","LGBTQ+","Cishet","LGBTQ+","true",""
"","iat","737","j","142","235057","Genderqueer","LGBTQ+","LGBTQ+","Cishet","LGBTQ+","true",""
"","iat","1015","j","144","236326","Inclusivity","LGBTQ+","LGBTQ+","Cishet","LGBTQ+","true",""
"","iat","670","j","146","237250","Diversity","LGBTQ+","LGBTQ+","Cishet","LGBTQ+","true",""
"","iat","1089","f","148","238591","Cissexual","Cishet","Cishet","Cishet","LGBTQ+","true",""
"","iat","2095","j","151","262272","Heterosexual","Cishet","Physical illness or Cishet","Mental illness or LGBTQ+","Physical illness or Cishet","true",""
"","iat","1295","j","153","263824","Leukemia","Physical illness","Physical illness or Cishet","Mental illness or LGBTQ+","Physical illness or Cishet","true",""
"","iat","1239","f","155","265319","Bipolar Disorder","Mental illness","Mental illness or LGBTQ+","Mental illness or LGBTQ+","Physical illness or Cishet","true",""
"","iat","740","f","157","266314","Queerness","LGBTQ+","Mental illness or LGBTQ+","Mental illness or LGBTQ+","Physical illness or Cishet","true",""
"","iat","1243","f","159","267811","Anxiety","Mental illness","Mental illness or LGBTQ+","Mental illness or LGBTQ+","Physical illness or Cishet","true",""
"","iat","805","f","161","268872","Transgender","LGBTQ+","Mental illness or LGBTQ+","Mental illness or LGBTQ+","Physical illness or Cishet","true",""
"","iat","757","j","163","269885","Asthma","Physical illness","Physical illness or Cishet","Mental illness or LGBTQ+","Physical illness or Cishet","true",""
"","iat","941","f","165","271081","OCD","Mental illness","Mental illness or LGBTQ+","Mental illness or LGBTQ+","Physical illness or Cishet","true",""
"","iat","1304","f","167","272640","Autism","Mental illness","Mental illness or LGBTQ+","Mental illness or LGBTQ+","Physical illness or Cishet","true",""
"","iat","689","f","169","273584","Schizophrenia","Mental illness","Mental illness or LGBTQ+","Mental illness or LGBTQ+","Physical illness or Cishet","true",""
"","iat","809","f","171","274648","PTSD","Mental illness","Mental illness or LGBTQ+","Mental illness or LGBTQ+","Physical illness or Cishet","true",""
"","iat","928","f","173","275830","Androgynous","LGBTQ+","Mental illness or LGBTQ+","Mental illness or LGBTQ+","Physical illness or Cishet","true",""
"","iat","760","j","175","276843","Straight","Cishet","Physical illness or Cishet","Mental illness or LGBTQ+","Physical illness or Cishet","true",""
"","iat","965","f","177","278062","Inclusivity","LGBTQ+","Mental illness or LGBTQ+","Mental illness or LGBTQ+","Physical illness or Cishet","true",""
"","iat","1020","f","179","279337","Psychosis","Mental illness","Mental illness or LGBTQ+","Mental illness or LGBTQ+","Physical illness or Cishet","true",""
"","iat","778","j","181","280370","Cissexual","Cishet","Physical illness or Cishet","Mental illness or LGBTQ+","Physical illness or Cishet","true",""
"","iat","930","j","183","281555","Usual","Cishet","Physical illness or Cishet","Mental illness or LGBTQ+","Physical illness or Cishet","true",""
"","iat","1008","j","185","282818","Arthritis","Physical illness","Physical illness or Cishet","Mental illness or LGBTQ+","Physical illness or Cishet","true",""
"","iat","903","f","187","283976","Depression","Mental illness","Mental illness or LGBTQ+","Mental illness or LGBTQ+","Physical illness or Cishet","true",""
"","iat","979","j","189","285209","Diabetes","Physical illness","Physical illness or Cishet","Mental illness or LGBTQ+","Physical illness or Cishet","true",""
"","iat","901","f","191","286365","Pansexual","LGBTQ+","Mental illness or LGBTQ+","Mental illness or LGBTQ+","Physical illness or Cishet","true",""
"","iat","721","f","193","287341","Influenza","Physical illness","Physical illness or Cishet","Mental illness or LGBTQ+","Physical illness or Cishet","false",""
"","iat","2091","j","195","289686","Cisgendered","Cishet","Physical illness or Cishet","Mental illness or LGBTQ+","Physical illness or Cishet","true",""
"","iat","978","j","197","290920","Heteronormative","Cishet","Physical illness or Cishet","Mental illness or LGBTQ+","Physical illness or Cishet","true",""
"","iat","878","f","199","292051","Fluidity","LGBTQ+","Mental illness or LGBTQ+","Mental illness or LGBTQ+","Physical illness or Cishet","true",""
"","iat","876","f","201","293182","Panic Disorder","Mental illness","Mental illness or LGBTQ+","Mental illness or LGBTQ+","Physical illness or Cishet","true",""
"","iat","935","j","203","294372","Pneumonia","Physical illness","Physical illness or Cishet","Mental illness or LGBTQ+","Physical illness or Cishet","true",""
"","iat","1365","f","205","295993","Genderqueer","LGBTQ+","Mental illness or LGBTQ+","Mental illness or LGBTQ+","Physical illness or Cishet","true",""
"","iat","870","j","207","297118","Biological","Cishet","Physical illness or Cishet","Mental illness or LGBTQ+","Physical illness or Cishet","true",""
"","iat","853","f","209","298226","Nonbinary","LGBTQ+","Mental illness or LGBTQ+","Mental illness or LGBTQ+","Physical illness or Cishet","true",""
"","iat","1052","j","211","299534","Traditional","Cishet","Physical illness or Cishet","Mental illness or LGBTQ+","Physical illness or Cishet","true",""
"","iat","831","f","213","300619","Bisexual","LGBTQ+","Mental illness or LGBTQ+","Mental illness or LGBTQ+","Physical illness or Cishet","true",""
"","iat","995","j","215","301870","Common Cold","Physical illness","Physical illness or Cishet","Mental illness or LGBTQ+","Physical illness or Cishet","true",""
"","iat","749","j","217","302874","Epilepsy","Physical illness","Physical illness or Cishet","Mental illness or LGBTQ+","Physical illness or Cishet","true",""
"","iat","707","j","219","303835","Meningitis","Physical illness","Physical illness or Cishet","Mental illness or LGBTQ+","Physical illness or Cishet","true",""
"","iat","769","j","221","304860","Migraine","Physical illness","Physical illness or Cishet","Mental illness or LGBTQ+","Physical illness or Cishet","true",""
"","iat","1963","f","224","327166","Schizophrenia","Mental illness","Mental illness or Cishet","Mental illness or Cishet","Physical illness or LGBTQ+","true",""
"","iat","1282","j","226","328703","Bisexual","LGBTQ+","Physical illness or LGBTQ+","Mental illness or Cishet","Physical illness or LGBTQ+","true",""
"","iat","1387","f","228","330344","Traditional","Cishet","Mental illness or Cishet","Mental illness or Cishet","Physical illness or LGBTQ+","true",""
"","iat","1338","j","230","331937","Pneumonia","Physical illness","Physical illness or LGBTQ+","Mental illness or Cishet","Physical illness or LGBTQ+","true",""
"","iat","1177","f","232","333370","Autism","Mental illness","Mental illness or Cishet","Mental illness or Cishet","Physical illness or LGBTQ+","true",""
"","iat","879","j","234","334504","Common Cold","Physical illness","Physical illness or LGBTQ+","Mental illness or Cishet","Physical illness or LGBTQ+","true",""
"","iat","1300","f","236","336059","Heterosexual","Cishet","Mental illness or Cishet","Mental illness or Cishet","Physical illness or LGBTQ+","true",""
"","iat","976","f","238","337290","Migraine","Physical illness","Physical illness or LGBTQ+","Mental illness or Cishet","Physical illness or LGBTQ+","false",""
"","iat","2992","f","240","340536","Panic Disorder","Mental illness","Mental illness or Cishet","Mental illness or Cishet","Physical illness or LGBTQ+","true",""
"","iat","1815","f","242","342607","Biological","Cishet","Mental illness or Cishet","Mental illness or Cishet","Physical illness or LGBTQ+","true",""
"","iat","1345","j","244","344207","Genderqueer","LGBTQ+","Physical illness or LGBTQ+","Mental illness or Cishet","Physical illness or LGBTQ+","true",""
"","iat","1191","j","246","345652","Leukemia","Physical illness","Physical illness or LGBTQ+","Mental illness or Cishet","Physical illness or LGBTQ+","true",""
"","iat","974","j","248","346880","Arthritis","Physical illness","Physical illness or LGBTQ+","Mental illness or Cishet","Physical illness or LGBTQ+","true",""
"","iat","1071","f","250","348206","Anorexia","Mental illness","Mental illness or Cishet","Mental illness or Cishet","Physical illness or LGBTQ+","true",""
"","iat","2523","f","252","350984","Bipolar Disorder","Mental illness","Mental illness or Cishet","Mental illness or Cishet","Physical illness or LGBTQ+","true",""
"","iat","1073","f","254","352312","Cisgendered","Cishet","Mental illness or Cishet","Mental illness or Cishet","Physical illness or LGBTQ+","true",""
"","iat","709","f","256","353277","Hetero","Cishet","Mental illness or Cishet","Mental illness or Cishet","Physical illness or LGBTQ+","true",""
"","iat","726","f","258","354257","OCD","Mental illness","Mental illness or Cishet","Mental illness or Cishet","Physical illness or LGBTQ+","true",""
"","iat","747","f","260","355258","Anxiety","Mental illness","Mental illness or Cishet","Mental illness or Cishet","Physical illness or LGBTQ+","true",""
"","iat","923","f","262","356434","Psychosis","Mental illness","Mental illness or Cishet","Mental illness or Cishet","Physical illness or LGBTQ+","true",""
"","iat","976","f","264","357664","Depression","Mental illness","Mental illness or Cishet","Mental illness or Cishet","Physical illness or LGBTQ+","true",""
"","iat","655","j","266","358574","Meningitis","Physical illness","Physical illness or LGBTQ+","Mental illness or Cishet","Physical illness or LGBTQ+","true",""
"","iat","813","j","268","359641","Queerness","LGBTQ+","Physical illness or LGBTQ+","Mental illness or Cishet","Physical illness or LGBTQ+","true",""
"","iat","793","j","270","360689","Diversity","LGBTQ+","Physical illness or LGBTQ+","Mental illness or Cishet","Physical illness or LGBTQ+","true",""
"","iat","1087","f","272","362031","Usual","Cishet","Mental illness or Cishet","Mental illness or Cishet","Physical illness or LGBTQ+","true",""
"","iat","1521","j","274","363806","Diabetes","Physical illness","Physical illness or LGBTQ+","Mental illness or Cishet","Physical illness or LGBTQ+","true",""
"","iat","843","j","276","364904","Inclusivity","LGBTQ+","Physical illness or LGBTQ+","Mental illness or Cishet","Physical illness or LGBTQ+","true",""
"","iat","733","j","278","365892","Androgynous","LGBTQ+","Physical illness or LGBTQ+","Mental illness or Cishet","Physical illness or LGBTQ+","true",""
"","iat","1334","j","280","367481","Epilepsy","Physical illness","Physical illness or LGBTQ+","Mental illness or Cishet","Physical illness or LGBTQ+","true",""
"","iat","968","f","282","368703","Straight","Cishet","Mental illness or Cishet","Mental illness or Cishet","Physical illness or LGBTQ+","true",""
"","iat","826","j","284","369784","Influenza","Physical illness","Physical illness or LGBTQ+","Mental illness or Cishet","Physical illness or LGBTQ+","true",""
"","iat","743","j","286","370782","Asthma","Physical illness","Physical illness or LGBTQ+","Mental illness or Cishet","Physical illness or LGBTQ+","true",""
"","iat","1601","f","288","372636","Conformity","Cishet","Mental illness or Cishet","Mental illness or Cishet","Physical illness or LGBTQ+","true",""
"","iat","782","j","290","373674","Pansexual","LGBTQ+","Physical illness or LGBTQ+","Mental illness or Cishet","Physical illness or LGBTQ+","true",""
"","iat","1260","j","292","375189","Nonbinary","LGBTQ+","Physical illness or LGBTQ+","Mental illness or Cishet","Physical illness or LGBTQ+","true",""
"","iat","949","f","294","376393","Heteronormative","Cishet","Mental illness or Cishet","Mental illness or Cishet","Physical illness or LGBTQ+","true",""
"","Questionnaire","152280","{""question1"":2,""question2"":2,""question3"":2,""question4"":2,""question5"":2,""question6"":2,""question7"":1,""question8"":1,""question9"":0,""question10"":4,""question11"":2,""question12"":3,""question13"":4,""question14"":4,""question15"":0}","296","528934","","","","","","","[0,1,2,3,4,5,6,7,8,9,10,11,12,13,14]"
