"whichPrime","trialType","rt","response","trial_index","time_elapsed","word","expectedCategory","expectedCategoryAsDisplayed","leftCategory","rightCategory","correct","question_order"
"Control","prime","24065"," ","2","30133","","","","","","",""
"","iat","3551","j","5","46848","Psychosis","Mental illness","Mental illness","Physical illness","Mental illness","true",""
"","iat","859","j","7","47961","Bipolar Disorder","Mental illness","Mental illness","Physical illness","Mental illness","true",""
"","iat","1735","f","9","49951","Migraine","Physical illness","Physical illness","Physical illness","Mental illness","true",""
"","iat","1157","f","11","51364","Common Cold","Physical illness","Physical illness","Physical illness","Mental illness","true",""
"","iat","1220","f","13","52838","Leukemia","Physical illness","Physical illness","Physical illness","Mental illness","true",""
"","iat","1140","f","15","54233","Asthma","Physical illness","Physical illness","Physical illness","Mental illness","true",""
"","iat","1180","j","17","55667","Schizophrenia","Mental illness","Mental illness","Physical illness","Mental illness","true",""
"","iat","1439","j","19","57358","Anorexia","Mental illness","Mental illness","Physical illness","Mental illness","true",""
"","iat","1243","j","21","58854","Panic Disorder","Mental illness","Mental illness","Physical illness","Mental illness","true",""
"","iat","770","f","23","59879","Migraine","Physical illness","Physical illness","Physical illness","Mental illness","true",""
"","iat","1488","f","25","61621","Epilepsy","Physical illness","Physical illness","Physical illness","Mental illness","true",""
"","iat","1333","j","27","63208","OCD","Mental illness","Mental illness","Physical illness","Mental illness","true",""
"","iat","1914","j","29","65376","Bipolar Disorder","Mental illness","Mental illness","Physical illness","Mental illness","true",""
"","iat","844","f","31","66473","Diabetes","Physical illness","Physical illness","Physical illness","Mental illness","true",""
"","iat","654","f","33","67381","Common Cold","Physical illness","Physical illness","Physical illness","Mental illness","true",""
"","iat","1346","f","35","68981","Pneumonia","Physical illness","Physical illness","Physical illness","Mental illness","true",""
"","iat","680","j","37","69915","Psychosis","Mental illness","Mental illness","Physical illness","Mental illness","true",""
"","iat","592","f","39","70761","Pneumonia","Physical illness","Physical illness","Physical illness","Mental illness","true",""
"","iat","1076","j","41","72092","Autism","Mental illness","Mental illness","Physical illness","Mental illness","true",""
"","iat","995","j","43","73342","Anxiety","Mental illness","Mental illness","Physical illness","Mental illness","true",""
"","iat","1579","f","45","75175","Diabetes","Physical illness","Physical illness","Physical illness","Mental illness","true",""
"","iat","742","j","47","76172","Autism","Mental illness","Mental illness","Physical illness","Mental illness","true",""
"","iat","749","j","49","77176","Panic Disorder","Mental illness","Mental illness","Physical illness","Mental illness","true",""
"","iat","614","j","51","78045","Schizophrenia","Mental illness","Mental illness","Physical illness","Mental illness","true",""
"","iat","1109","f","53","79408","Influenza","Physical illness","Physical illness","Physical illness","Mental illness","true",""
"","iat","707","f","55","80369","Arthritis","Physical illness","Physical illness","Physical illness","Mental illness","true",""
"","iat","548","f","57","81171","Influenza","Physical illness","Physical illness","Physical illness","Mental illness","true",""
"","iat","761","j","59","82187","OCD","Mental illness","Mental illness","Physical illness","Mental illness","true",""
"","iat","630","j","61","83071","Anorexia","Mental illness","Mental illness","Physical illness","Mental illness","true",""
"","iat","886","f","63","84212","Epilepsy","Physical illness","Physical illness","Physical illness","Mental illness","true",""
"","iat","1694","f","65","86161","Asthma","Physical illness","Physical illness","Physical illness","Mental illness","true",""
"","iat","945","f","67","87361","Meningitis","Physical illness","Physical illness","Physical illness","Mental illness","true",""
"","iat","1010","f","69","88625","Meningitis","Physical illness","Physical illness","Physical illness","Mental illness","true",""
"","iat","736","j","71","89615","PTSD","Mental illness","Mental illness","Physical illness","Mental illness","true",""
"","iat","775","j","73","90645","Depression","Mental illness","Mental illness","Physical illness","Mental illness","true",""
"","iat","588","j","75","91488","PTSD","Mental illness","Mental illness","Physical illness","Mental illness","true",""
"","iat","1794","f","78","100987","Inclusivity","LGBTQ+","LGBTQ+","LGBTQ+","Cishet","true",""
"","iat","806","f","80","102048","Fluidity","LGBTQ+","LGBTQ+","LGBTQ+","Cishet","true",""
"","iat","1968","j","82","104270","Biological","Cishet","Cishet","LGBTQ+","Cishet","true",""
"","iat","1631","f","84","106156","Nonbinary","LGBTQ+","LGBTQ+","LGBTQ+","Cishet","true",""
"","iat","967","j","86","107377","Heteronormative","Cishet","Cishet","LGBTQ+","Cishet","true",""
"","iat","911","j","88","108543","Cissexual","Cishet","Cishet","LGBTQ+","Cishet","true",""
"","iat","1312","j","90","110110","Straight","Cishet","Cishet","LGBTQ+","Cishet","true",""
"","iat","773","j","92","111138","Cisgendered","Cishet","Cishet","LGBTQ+","Cishet","true",""
"","iat","702","f","94","112094","Diversity","LGBTQ+","LGBTQ+","LGBTQ+","Cishet","true",""
"","iat","726","f","96","113075","Pansexual","LGBTQ+","LGBTQ+","LGBTQ+","Cishet","true",""
"","iat","657","j","98","113986","Heteronormative","Cishet","Cishet","LGBTQ+","Cishet","true",""
"","iat","878","f","100","115119","Genderqueer","LGBTQ+","LGBTQ+","LGBTQ+","Cishet","true",""
"","iat","1135","j","102","116509","Cissexual","Cishet","Cishet","LGBTQ+","Cishet","true",""
"","iat","728","j","104","117491","Heterosexual","Cishet","Cishet","LGBTQ+","Cishet","true",""
"","iat","602","f","106","118348","Nonbinary","LGBTQ+","LGBTQ+","LGBTQ+","Cishet","true",""
"","iat","645","f","108","119247","Diversity","LGBTQ+","LGBTQ+","LGBTQ+","Cishet","true",""
"","iat","1014","j","110","120515","Heterosexual","Cishet","Cishet","LGBTQ+","Cishet","true",""
"","iat","592","f","112","121361","Fluidity","LGBTQ+","LGBTQ+","LGBTQ+","Cishet","true",""
"","iat","676","j","114","122290","Straight","Cishet","Cishet","LGBTQ+","Cishet","true",""
"","iat","716","j","116","123261","Biological","Cishet","Cishet","LGBTQ+","Cishet","true",""
"","iat","1422","f","118","124937","Androgynous","LGBTQ+","LGBTQ+","LGBTQ+","Cishet","true",""
"","iat","954","j","120","126145","Usual","Cishet","Cishet","LGBTQ+","Cishet","true",""
"","iat","824","f","122","127224","Androgynous","LGBTQ+","LGBTQ+","LGBTQ+","Cishet","true",""
"","iat","1602","j","124","129080","Transgender","LGBTQ+","LGBTQ+","LGBTQ+","Cishet","false",""
"","iat","538","f","126","129871","Transgender","LGBTQ+","LGBTQ+","LGBTQ+","Cishet","true",""
"","iat","1494","f","128","131620","Bisexual","LGBTQ+","LGBTQ+","LGBTQ+","Cishet","true",""
"","iat","724","j","130","132598","Usual","Cishet","Cishet","LGBTQ+","Cishet","true",""
"","iat","1165","f","132","134016","Queerness","LGBTQ+","LGBTQ+","LGBTQ+","Cishet","true",""
"","iat","1222","j","134","135493","Cisgendered","Cishet","Cishet","LGBTQ+","Cishet","true",""
"","iat","632","f","136","136380","Inclusivity","LGBTQ+","LGBTQ+","LGBTQ+","Cishet","true",""
"","iat","788","f","138","137422","Genderqueer","LGBTQ+","LGBTQ+","LGBTQ+","Cishet","true",""
"","iat","847","j","140","138522","Hetero","Cishet","Cishet","LGBTQ+","Cishet","true",""
"","iat","683","f","142","139460","Bisexual","LGBTQ+","LGBTQ+","LGBTQ+","Cishet","true",""
"","iat","588","j","144","140302","Hetero","Cishet","Cishet","LGBTQ+","Cishet","true",""
"","iat","1257","j","146","141813","Conformity","Cishet","Cishet","LGBTQ+","Cishet","true",""
"","iat","766","j","148","142834","Traditional","Cishet","Cishet","LGBTQ+","Cishet","true",""
"","iat","3086","f","151","152352","Leukemia","Physical illness","Physical illness or LGBTQ+","Physical illness or LGBTQ+","Mental illness or Cishet","true",""
"","iat","792","f","153","153399","Asthma","Physical illness","Physical illness or LGBTQ+","Physical illness or LGBTQ+","Mental illness or Cishet","true",""
"","iat","927","j","155","154580","Heteronormative","Cishet","Mental illness or Cishet","Physical illness or LGBTQ+","Mental illness or Cishet","true",""
"","iat","2695","f","157","157529","Bisexual","LGBTQ+","Physical illness or LGBTQ+","Physical illness or LGBTQ+","Mental illness or Cishet","true",""
"","iat","915","j","159","158698","Depression","Mental illness","Mental illness or Cishet","Physical illness or LGBTQ+","Mental illness or Cishet","true",""
"","iat","999","f","161","159952","Meningitis","Physical illness","Physical illness or LGBTQ+","Physical illness or LGBTQ+","Mental illness or Cishet","true",""
"","iat","610","f","163","160815","Diabetes","Physical illness","Physical illness or LGBTQ+","Physical illness or LGBTQ+","Mental illness or Cishet","true",""
"","iat","891","j","165","161961","Heterosexual","Cishet","Mental illness or Cishet","Physical illness or LGBTQ+","Mental illness or Cishet","true",""
"","iat","630","f","167","162845","Pansexual","LGBTQ+","Physical illness or LGBTQ+","Physical illness or LGBTQ+","Mental illness or Cishet","true",""
"","iat","544","f","169","163644","Queerness","LGBTQ+","Physical illness or LGBTQ+","Physical illness or LGBTQ+","Mental illness or Cishet","true",""
"","iat","678","j","171","164576","Cisgendered","Cishet","Mental illness or Cishet","Physical illness or LGBTQ+","Mental illness or Cishet","true",""
"","iat","1735","f","173","166565","Psychosis","Mental illness","Mental illness or Cishet","Physical illness or LGBTQ+","Mental illness or Cishet","false",""
"","iat","1273","f","175","168091","Anxiety","Mental illness","Mental illness or Cishet","Physical illness or LGBTQ+","Mental illness or Cishet","false",""
"","iat","654","f","177","169000","Common Cold","Physical illness","Physical illness or LGBTQ+","Physical illness or LGBTQ+","Mental illness or Cishet","true",""
"","iat","810","j","179","170063","Schizophrenia","Mental illness","Mental illness or Cishet","Physical illness or LGBTQ+","Mental illness or Cishet","true",""
"","iat","907","j","181","171223","Biological","Cishet","Mental illness or Cishet","Physical illness or LGBTQ+","Mental illness or Cishet","true",""
"","iat","829","f","183","172307","Inclusivity","LGBTQ+","Physical illness or LGBTQ+","Physical illness or LGBTQ+","Mental illness or Cishet","true",""
"","iat","738","f","185","173298","Transgender","LGBTQ+","Physical illness or LGBTQ+","Physical illness or LGBTQ+","Mental illness or Cishet","true",""
"","iat","784","f","187","174336","Influenza","Physical illness","Physical illness or LGBTQ+","Physical illness or LGBTQ+","Mental illness or Cishet","true",""
"","iat","763","j","189","175353","Panic Disorder","Mental illness","Mental illness or Cishet","Physical illness or LGBTQ+","Mental illness or Cishet","true",""
"","iat","1058","j","191","176665","Hetero","Cishet","Mental illness or Cishet","Physical illness or LGBTQ+","Mental illness or Cishet","true",""
"","iat","702","j","193","177621","Cissexual","Cishet","Mental illness or Cishet","Physical illness or LGBTQ+","Mental illness or Cishet","true",""
"","iat","727","f","195","178602","Nonbinary","LGBTQ+","Physical illness or LGBTQ+","Physical illness or LGBTQ+","Mental illness or Cishet","true",""
"","iat","734","j","197","179590","Autism","Mental illness","Mental illness or Cishet","Physical illness or LGBTQ+","Mental illness or Cishet","true",""
"","iat","1716","j","199","181560","OCD","Mental illness","Mental illness or Cishet","Physical illness or LGBTQ+","Mental illness or Cishet","true",""
"","iat","1089","j","201","182903","Straight","Cishet","Mental illness or Cishet","Physical illness or LGBTQ+","Mental illness or Cishet","true",""
"","iat","705","f","203","183862","Pneumonia","Physical illness","Physical illness or LGBTQ+","Physical illness or LGBTQ+","Mental illness or Cishet","true",""
"","iat","763","f","205","184879","Fluidity","LGBTQ+","Physical illness or LGBTQ+","Physical illness or LGBTQ+","Mental illness or Cishet","true",""
"","iat","740","f","207","185873","Diversity","LGBTQ+","Physical illness or LGBTQ+","Physical illness or LGBTQ+","Mental illness or Cishet","true",""
"","iat","977","j","209","187104","Anorexia","Mental illness","Mental illness or Cishet","Physical illness or LGBTQ+","Mental illness or Cishet","true",""
"","iat","838","f","211","188196","Conformity","Cishet","Mental illness or Cishet","Physical illness or LGBTQ+","Mental illness or Cishet","false",""
"","iat","762","j","213","189213","Traditional","Cishet","Mental illness or Cishet","Physical illness or LGBTQ+","Mental illness or Cishet","true",""
"","iat","727","j","215","190194","Usual","Cishet","Mental illness or Cishet","Physical illness or LGBTQ+","Mental illness or Cishet","true",""
"","iat","638","f","217","191085","Androgynous","LGBTQ+","Physical illness or LGBTQ+","Physical illness or LGBTQ+","Mental illness or Cishet","true",""
"","iat","656","f","219","191995","Arthritis","Physical illness","Physical illness or LGBTQ+","Physical illness or LGBTQ+","Mental illness or Cishet","true",""
"","iat","662","f","221","192911","Epilepsy","Physical illness","Physical illness or LGBTQ+","Physical illness or LGBTQ+","Mental illness or Cishet","true",""
"","iat","3067","j","224","197170","Androgynous","LGBTQ+","Mental illness or LGBTQ+","Physical illness or Cishet","Mental illness or LGBTQ+","true",""
"","iat","1442","f","226","198866","Conformity","Cishet","Physical illness or Cishet","Physical illness or Cishet","Mental illness or LGBTQ+","true",""
"","iat","880","j","228","199999","Nonbinary","LGBTQ+","Mental illness or LGBTQ+","Physical illness or Cishet","Mental illness or LGBTQ+","true",""
"","iat","1472","j","230","201725","Depression","Mental illness","Mental illness or LGBTQ+","Physical illness or Cishet","Mental illness or LGBTQ+","true",""
"","iat","1361","j","232","203339","Fluidity","LGBTQ+","Mental illness or LGBTQ+","Physical illness or Cishet","Mental illness or LGBTQ+","true",""
"","iat","737","f","234","204330","Diabetes","Physical illness","Physical illness or Cishet","Physical illness or Cishet","Mental illness or LGBTQ+","true",""
"","iat","871","f","236","205454","Influenza","Physical illness","Physical illness or Cishet","Physical illness or Cishet","Mental illness or LGBTQ+","true",""
"","iat","661","f","238","206369","Common Cold","Physical illness","Physical illness or Cishet","Physical illness or Cishet","Mental illness or LGBTQ+","true",""
"","iat","737","f","240","207361","Asthma","Physical illness","Physical illness or Cishet","Physical illness or Cishet","Mental illness or LGBTQ+","true",""
"","iat","1018","f","242","208633","Straight","Cishet","Physical illness or Cishet","Physical illness or Cishet","Mental illness or LGBTQ+","true",""
"","iat","1549","j","244","210436","Schizophrenia","Mental illness","Mental illness or LGBTQ+","Physical illness or Cishet","Mental illness or LGBTQ+","true",""
"","iat","782","j","246","211473","Transgender","LGBTQ+","Mental illness or LGBTQ+","Physical illness or Cishet","Mental illness or LGBTQ+","true",""
"","iat","866","j","248","212592","OCD","Mental illness","Mental illness or LGBTQ+","Physical illness or Cishet","Mental illness or LGBTQ+","true",""
"","iat","2249","j","250","215094","Inclusivity","LGBTQ+","Mental illness or LGBTQ+","Physical illness or Cishet","Mental illness or LGBTQ+","true",""
"","iat","814","f","252","216163","Arthritis","Physical illness","Physical illness or Cishet","Physical illness or Cishet","Mental illness or LGBTQ+","true",""
"","iat","864","f","254","217281","Heterosexual","Cishet","Physical illness or Cishet","Physical illness or Cishet","Mental illness or LGBTQ+","true",""
"","iat","1206","j","256","218740","Diversity","LGBTQ+","Mental illness or LGBTQ+","Physical illness or Cishet","Mental illness or LGBTQ+","true",""
"","iat","875","f","258","219869","Heteronormative","Cishet","Physical illness or Cishet","Physical illness or Cishet","Mental illness or LGBTQ+","true",""
"","iat","800","j","260","220924","Bisexual","LGBTQ+","Mental illness or LGBTQ+","Physical illness or Cishet","Mental illness or LGBTQ+","true",""
"","iat","1148","f","262","222326","Migraine","Physical illness","Physical illness or Cishet","Physical illness or Cishet","Mental illness or LGBTQ+","true",""
"","iat","870","f","264","223450","Meningitis","Physical illness","Physical illness or Cishet","Physical illness or Cishet","Mental illness or LGBTQ+","true",""
"","iat","708","f","266","224412","Cissexual","Cishet","Physical illness or Cishet","Physical illness or Cishet","Mental illness or LGBTQ+","true",""
"","iat","562","f","268","225227","Traditional","Cishet","Physical illness or Cishet","Physical illness or Cishet","Mental illness or LGBTQ+","true",""
"","iat","1547","j","270","227028","Psychosis","Mental illness","Mental illness or LGBTQ+","Physical illness or Cishet","Mental illness or LGBTQ+","true",""
"","iat","1779","f","272","229061","Pneumonia","Physical illness","Physical illness or Cishet","Physical illness or Cishet","Mental illness or LGBTQ+","true",""
"","iat","1568","j","274","230883","Autism","Mental illness","Mental illness or LGBTQ+","Physical illness or Cishet","Mental illness or LGBTQ+","true",""
"","iat","675","j","276","231812","Genderqueer","LGBTQ+","Mental illness or LGBTQ+","Physical illness or Cishet","Mental illness or LGBTQ+","true",""
"","iat","839","j","278","232905","Bipolar Disorder","Mental illness","Mental illness or LGBTQ+","Physical illness or Cishet","Mental illness or LGBTQ+","true",""
"","iat","582","j","280","233742","Queerness","LGBTQ+","Mental illness or LGBTQ+","Physical illness or Cishet","Mental illness or LGBTQ+","true",""
"","iat","590","j","282","234586","Anxiety","Mental illness","Mental illness or LGBTQ+","Physical illness or Cishet","Mental illness or LGBTQ+","true",""
"","iat","611","f","284","235451","Leukemia","Physical illness","Physical illness or Cishet","Physical illness or Cishet","Mental illness or LGBTQ+","true",""
"","iat","784","j","286","236489","PTSD","Mental illness","Mental illness or LGBTQ+","Physical illness or Cishet","Mental illness or LGBTQ+","true",""
"","iat","704","f","288","237448","Biological","Cishet","Physical illness or Cishet","Physical illness or Cishet","Mental illness or LGBTQ+","true",""
"","iat","878","f","290","238581","Hetero","Cishet","Physical illness or Cishet","Physical illness or Cishet","Mental illness or LGBTQ+","true",""
"","iat","659","j","292","239494","Pansexual","LGBTQ+","Mental illness or LGBTQ+","Physical illness or Cishet","Mental illness or LGBTQ+","true",""
"","iat","1051","f","294","240799","Cisgendered","Cishet","Physical illness or Cishet","Physical illness or Cishet","Mental illness or LGBTQ+","true",""
"","Questionnaire","68083","{""question1"":0,""question2"":0,""question3"":0,""question4"":0,""question5"":4,""question6"":4,""question7"":4,""question8"":0,""question9"":0,""question10"":4,""question11"":0,""question12"":4,""question13"":4,""question14"":4,""question15"":0}","296","309141","","","","","","","[0,1,2,3,4,5,6,7,8,9,10,11,12,13,14]"
