"whichPrime","trialType","rt","response","trial_index","time_elapsed","word","expectedCategory","expectedCategoryAsDisplayed","leftCategory","rightCategory","correct","question_order"
"CisHet","prime","13201"," ","2","18806","","","","","","",""
"","iat","1295","f","5","45066","Fluidity","LGBTQ+","LGBTQ+","LGBTQ+","Cishet","true",""
"","iat","1042","j","7","46365","Usual","Cishet","Cishet","LGBTQ+","Cishet","true",""
"","iat","942","j","9","47563","Traditional","Cishet","Cishet","LGBTQ+","Cishet","true",""
"","iat","1554","f","11","49373","Androgynous","LGBTQ+","LGBTQ+","LGBTQ+","Cishet","true",""
"","iat","1097","j","13","50727","Hetero","Cishet","Cishet","LGBTQ+","Cishet","true",""
"","iat","1367","f","15","52350","Cisgendered","Cishet","Cishet","LGBTQ+","Cishet","false",""
"","iat","1824","f","17","54429","Genderqueer","LGBTQ+","LGBTQ+","LGBTQ+","Cishet","true",""
"","iat","884","f","19","55569","Transgender","LGBTQ+","LGBTQ+","LGBTQ+","Cishet","true",""
"","iat","2629","f","21","58457","Fluidity","LGBTQ+","LGBTQ+","LGBTQ+","Cishet","true",""
"","iat","904","f","23","59617","Genderqueer","LGBTQ+","LGBTQ+","LGBTQ+","Cishet","true",""
"","iat","711","f","25","60584","Queerness","LGBTQ+","LGBTQ+","LGBTQ+","Cishet","true",""
"","iat","1000","j","27","61842","Cisgendered","Cishet","Cishet","LGBTQ+","Cishet","true",""
"","iat","2108","f","29","64203","Nonbinary","LGBTQ+","LGBTQ+","LGBTQ+","Cishet","true",""
"","iat","2015","f","31","66474","Inclusivity","LGBTQ+","LGBTQ+","LGBTQ+","Cishet","true",""
"","iat","1895","j","33","68625","Cissexual","Cishet","Cishet","LGBTQ+","Cishet","true",""
"","iat","1508","j","35","70390","Biological","Cishet","Cishet","LGBTQ+","Cishet","true",""
"","iat","736","j","37","71382","Biological","Cishet","Cishet","LGBTQ+","Cishet","true",""
"","iat","1135","j","39","72773","Heteronormative","Cishet","Cishet","LGBTQ+","Cishet","true",""
"","iat","915","f","41","73942","Androgynous","LGBTQ+","LGBTQ+","LGBTQ+","Cishet","true",""
"","iat","765","j","43","74963","Usual","Cishet","Cishet","LGBTQ+","Cishet","true",""
"","iat","996","f","45","76213","Queerness","LGBTQ+","LGBTQ+","LGBTQ+","Cishet","true",""
"","iat","877","j","47","77347","Conformity","Cishet","Cishet","LGBTQ+","Cishet","true",""
"","iat","945","j","49","78548","Heteronormative","Cishet","Cishet","LGBTQ+","Cishet","true",""
"","iat","1161","f","51","79964","Diversity","LGBTQ+","LGBTQ+","LGBTQ+","Cishet","true",""
"","iat","2000","j","53","82220","Conformity","Cishet","Cishet","LGBTQ+","Cishet","true",""
"","iat","1712","f","55","84187","Bisexual","LGBTQ+","LGBTQ+","LGBTQ+","Cishet","true",""
"","iat","922","f","57","85365","Nonbinary","LGBTQ+","LGBTQ+","LGBTQ+","Cishet","true",""
"","iat","973","f","59","86593","Pansexual","LGBTQ+","LGBTQ+","LGBTQ+","Cishet","true",""
"","iat","605","f","61","87454","Pansexual","LGBTQ+","LGBTQ+","LGBTQ+","Cishet","true",""
"","iat","1103","j","63","88811","Straight","Cishet","Cishet","LGBTQ+","Cishet","true",""
"","iat","540","j","65","89606","Straight","Cishet","Cishet","LGBTQ+","Cishet","true",""
"","iat","801","j","67","90663","Traditional","Cishet","Cishet","LGBTQ+","Cishet","true",""
"","iat","662","j","69","91580","Heterosexual","Cishet","Cishet","LGBTQ+","Cishet","true",""
"","iat","1217","f","71","93053","Inclusivity","LGBTQ+","LGBTQ+","LGBTQ+","Cishet","true",""
"","iat","812","j","73","94121","Hetero","Cishet","Cishet","LGBTQ+","Cishet","true",""
"","iat","856","f","75","95233","Bisexual","LGBTQ+","LGBTQ+","LGBTQ+","Cishet","true",""
"","iat","1959","f","78","100786","Panic Disorder","Mental illness","Mental illness","Mental illness","Physical illness","true",""
"","iat","1624","j","80","102665","Diabetes","Physical illness","Physical illness","Mental illness","Physical illness","true",""
"","iat","1303","j","82","104224","Autism","Mental illness","Mental illness","Mental illness","Physical illness","false",""
"","iat","1372","j","84","105850","Asthma","Physical illness","Physical illness","Mental illness","Physical illness","true",""
"","iat","1915","f","86","108021","Psychosis","Mental illness","Mental illness","Mental illness","Physical illness","true",""
"","iat","836","j","88","109111","Diabetes","Physical illness","Physical illness","Mental illness","Physical illness","true",""
"","iat","982","f","90","110346","OCD","Mental illness","Mental illness","Mental illness","Physical illness","true",""
"","iat","848","j","92","111449","Leukemia","Physical illness","Physical illness","Mental illness","Physical illness","true",""
"","iat","751","f","94","112455","Depression","Mental illness","Mental illness","Mental illness","Physical illness","true",""
"","iat","797","j","96","113506","Meningitis","Physical illness","Physical illness","Mental illness","Physical illness","true",""
"","iat","1048","f","98","114811","PTSD","Mental illness","Mental illness","Mental illness","Physical illness","true",""
"","iat","857","j","100","115923","Influenza","Physical illness","Physical illness","Mental illness","Physical illness","true",""
"","iat","2083","j","102","118263","Meningitis","Physical illness","Physical illness","Mental illness","Physical illness","true",""
"","iat","815","j","104","119334","Pneumonia","Physical illness","Physical illness","Mental illness","Physical illness","true",""
"","iat","871","f","106","120459","Bipolar Disorder","Mental illness","Mental illness","Mental illness","Physical illness","true",""
"","iat","913","f","108","121626","Epilepsy","Physical illness","Physical illness","Mental illness","Physical illness","false",""
"","iat","906","f","110","122787","PTSD","Mental illness","Mental illness","Mental illness","Physical illness","true",""
"","iat","779","j","112","123819","Pneumonia","Physical illness","Physical illness","Mental illness","Physical illness","true",""
"","iat","776","f","114","124850","Panic Disorder","Mental illness","Mental illness","Mental illness","Physical illness","true",""
"","iat","992","f","116","126096","Migraine","Physical illness","Physical illness","Mental illness","Physical illness","false",""
"","iat","1121","f","118","127471","Schizophrenia","Mental illness","Mental illness","Mental illness","Physical illness","true",""
"","iat","988","j","120","128714","Common Cold","Physical illness","Physical illness","Mental illness","Physical illness","true",""
"","iat","1054","j","122","130021","Arthritis","Physical illness","Physical illness","Mental illness","Physical illness","true",""
"","iat","1759","f","124","132034","Schizophrenia","Mental illness","Mental illness","Mental illness","Physical illness","true",""
"","iat","1151","f","126","133441","Anxiety","Mental illness","Mental illness","Mental illness","Physical illness","true",""
"","iat","752","f","128","134449","Psychosis","Mental illness","Mental illness","Mental illness","Physical illness","true",""
"","iat","1350","j","130","136054","Autism","Mental illness","Mental illness","Mental illness","Physical illness","false",""
"","iat","2380","f","132","138690","Depression","Mental illness","Mental illness","Mental illness","Physical illness","true",""
"","iat","934","j","134","139880","Anorexia","Mental illness","Mental illness","Mental illness","Physical illness","false",""
"","iat","3891","f","136","144027","Migraine","Physical illness","Physical illness","Mental illness","Physical illness","false",""
"","iat","648","j","138","144930","Common Cold","Physical illness","Physical illness","Mental illness","Physical illness","true",""
"","iat","740","j","140","145926","Leukemia","Physical illness","Physical illness","Mental illness","Physical illness","true",""
"","iat","1140","f","142","147322","Anorexia","Mental illness","Mental illness","Mental illness","Physical illness","true",""
"","iat","751","f","144","148329","Bipolar Disorder","Mental illness","Mental illness","Mental illness","Physical illness","true",""
"","iat","674","j","146","149259","Arthritis","Physical illness","Physical illness","Mental illness","Physical illness","true",""
"","iat","915","j","148","150429","Asthma","Physical illness","Physical illness","Mental illness","Physical illness","true",""
"","iat","1794","f","151","172763","Diabetes","Physical illness","Physical illness or Cishet","Physical illness or Cishet","Mental illness or LGBTQ+","true",""
"","iat","1199","j","153","174216","Androgynous","LGBTQ+","Mental illness or LGBTQ+","Physical illness or Cishet","Mental illness or LGBTQ+","true",""
"","iat","1995","j","155","176466","Inclusivity","LGBTQ+","Mental illness or LGBTQ+","Physical illness or Cishet","Mental illness or LGBTQ+","true",""
"","iat","2126","j","157","178849","Schizophrenia","Mental illness","Mental illness or LGBTQ+","Physical illness or Cishet","Mental illness or LGBTQ+","true",""
"","iat","1846","j","159","180948","Autism","Mental illness","Mental illness or LGBTQ+","Physical illness or Cishet","Mental illness or LGBTQ+","true",""
"","iat","1761","j","161","182963","Bipolar Disorder","Mental illness","Mental illness or LGBTQ+","Physical illness or Cishet","Mental illness or LGBTQ+","true",""
"","iat","1343","j","163","184560","Depression","Mental illness","Mental illness or LGBTQ+","Physical illness or Cishet","Mental illness or LGBTQ+","true",""
"","iat","1621","f","165","186437","Usual","Cishet","Physical illness or Cishet","Physical illness or Cishet","Mental illness or LGBTQ+","true",""
"","iat","853","f","167","187545","Heteronormative","Cishet","Physical illness or Cishet","Physical illness or Cishet","Mental illness or LGBTQ+","true",""
"","iat","647","f","169","188447","Traditional","Cishet","Physical illness or Cishet","Physical illness or Cishet","Mental illness or LGBTQ+","true",""
"","iat","927","f","171","189629","Bisexual","LGBTQ+","Mental illness or LGBTQ+","Physical illness or Cishet","Mental illness or LGBTQ+","false",""
"","iat","2961","f","173","192845","Leukemia","Physical illness","Physical illness or Cishet","Physical illness or Cishet","Mental illness or LGBTQ+","true",""
"","iat","851","j","175","193950","Queerness","LGBTQ+","Mental illness or LGBTQ+","Physical illness or Cishet","Mental illness or LGBTQ+","true",""
"","iat","981","f","177","195184","Pneumonia","Physical illness","Physical illness or Cishet","Physical illness or Cishet","Mental illness or LGBTQ+","true",""
"","iat","960","j","179","196399","Pansexual","LGBTQ+","Mental illness or LGBTQ+","Physical illness or Cishet","Mental illness or LGBTQ+","true",""
"","iat","1025","f","181","197679","Arthritis","Physical illness","Physical illness or Cishet","Physical illness or Cishet","Mental illness or LGBTQ+","true",""
"","iat","1420","j","183","199355","Epilepsy","Physical illness","Physical illness or Cishet","Physical illness or Cishet","Mental illness or LGBTQ+","false",""
"","iat","781","j","185","200391","Genderqueer","LGBTQ+","Mental illness or LGBTQ+","Physical illness or Cishet","Mental illness or LGBTQ+","true",""
"","iat","2749","j","187","203396","Anxiety","Mental illness","Mental illness or LGBTQ+","Physical illness or Cishet","Mental illness or LGBTQ+","true",""
"","iat","1654","f","189","205304","Biological","Cishet","Physical illness or Cishet","Physical illness or Cishet","Mental illness or LGBTQ+","true",""
"","iat","1063","j","191","206623","Fluidity","LGBTQ+","Mental illness or LGBTQ+","Physical illness or Cishet","Mental illness or LGBTQ+","true",""
"","iat","1195","j","193","208072","Diversity","LGBTQ+","Mental illness or LGBTQ+","Physical illness or Cishet","Mental illness or LGBTQ+","true",""
"","iat","1019","f","195","209346","Asthma","Physical illness","Physical illness or Cishet","Physical illness or Cishet","Mental illness or LGBTQ+","true",""
"","iat","1430","j","197","211032","Transgender","LGBTQ+","Mental illness or LGBTQ+","Physical illness or Cishet","Mental illness or LGBTQ+","true",""
"","iat","1441","j","199","212728","Anorexia","Mental illness","Mental illness or LGBTQ+","Physical illness or Cishet","Mental illness or LGBTQ+","true",""
"","iat","1990","f","201","214971","Cisgendered","Cishet","Physical illness or Cishet","Physical illness or Cishet","Mental illness or LGBTQ+","true",""
"","iat","2575","j","203","217802","Panic Disorder","Mental illness","Mental illness or LGBTQ+","Physical illness or Cishet","Mental illness or LGBTQ+","true",""
"","iat","1416","f","205","219472","Straight","Cishet","Physical illness or Cishet","Physical illness or Cishet","Mental illness or LGBTQ+","true",""
"","iat","1808","f","207","221535","Common Cold","Physical illness","Physical illness or Cishet","Physical illness or Cishet","Mental illness or LGBTQ+","true",""
"","iat","885","j","209","222674","OCD","Mental illness","Mental illness or LGBTQ+","Physical illness or Cishet","Mental illness or LGBTQ+","true",""
"","iat","1638","f","211","224567","Influenza","Physical illness","Physical illness or Cishet","Physical illness or Cishet","Mental illness or LGBTQ+","true",""
"","iat","1164","f","213","225986","Hetero","Cishet","Physical illness or Cishet","Physical illness or Cishet","Mental illness or LGBTQ+","true",""
"","iat","1022","f","215","227263","Meningitis","Physical illness","Physical illness or Cishet","Physical illness or Cishet","Mental illness or LGBTQ+","true",""
"","iat","1094","f","217","228611","Cissexual","Cishet","Physical illness or Cishet","Physical illness or Cishet","Mental illness or LGBTQ+","true",""
"","iat","774","j","219","229638","PTSD","Mental illness","Mental illness or LGBTQ+","Physical illness or Cishet","Mental illness or LGBTQ+","true",""
"","iat","1646","f","221","231538","Heterosexual","Cishet","Physical illness or Cishet","Physical illness or Cishet","Mental illness or LGBTQ+","true",""
"","iat","1274","f","224","250870","OCD","Mental illness","Mental illness or Cishet","Mental illness or Cishet","Physical illness or LGBTQ+","true",""
"","iat","1005","f","226","252129","Migraine","Physical illness","Physical illness or LGBTQ+","Mental illness or Cishet","Physical illness or LGBTQ+","false",""
"","iat","2591","j","228","254976","Transgender","LGBTQ+","Physical illness or LGBTQ+","Mental illness or Cishet","Physical illness or LGBTQ+","true",""
"","iat","2318","j","230","257549","Heterosexual","Cishet","Mental illness or Cishet","Mental illness or Cishet","Physical illness or LGBTQ+","false",""
"","iat","8775","f","232","266579","Queerness","LGBTQ+","Physical illness or LGBTQ+","Mental illness or Cishet","Physical illness or LGBTQ+","false",""
"","iat","4257","j","234","271090","Traditional","Cishet","Mental illness or Cishet","Mental illness or Cishet","Physical illness or LGBTQ+","false",""
"","iat","11256","f","236","282601","Schizophrenia","Mental illness","Mental illness or Cishet","Mental illness or Cishet","Physical illness or LGBTQ+","true",""
"","iat","1537","j","238","284393","Fluidity","LGBTQ+","Physical illness or LGBTQ+","Mental illness or Cishet","Physical illness or LGBTQ+","true",""
"","iat","4995","j","240","289642","Autism","Mental illness","Mental illness or Cishet","Mental illness or Cishet","Physical illness or LGBTQ+","false",""
"","iat","898","j","242","290794","Diabetes","Physical illness","Physical illness or LGBTQ+","Mental illness or Cishet","Physical illness or LGBTQ+","true",""
"","iat","1901","f","244","292951","Cissexual","Cishet","Mental illness or Cishet","Mental illness or Cishet","Physical illness or LGBTQ+","true",""
"","iat","8198","j","246","301404","Arthritis","Physical illness","Physical illness or LGBTQ+","Mental illness or Cishet","Physical illness or LGBTQ+","true",""
"","iat","3194","j","248","304854","Meningitis","Physical illness","Physical illness or LGBTQ+","Mental illness or Cishet","Physical illness or LGBTQ+","true",""
"","iat","1583","f","250","306693","Anxiety","Mental illness","Mental illness or Cishet","Mental illness or Cishet","Physical illness or LGBTQ+","true",""
"","iat","1011","j","252","307959","Common Cold","Physical illness","Physical illness or LGBTQ+","Mental illness or Cishet","Physical illness or LGBTQ+","true",""
"","iat","2053","f","254","310268","Straight","Cishet","Mental illness or Cishet","Mental illness or Cishet","Physical illness or LGBTQ+","true",""
"","iat","7121","j","256","317645","Influenza","Physical illness","Physical illness or LGBTQ+","Mental illness or Cishet","Physical illness or LGBTQ+","true",""
"","iat","5536","j","258","323437","Usual","Cishet","Mental illness or Cishet","Mental illness or Cishet","Physical illness or LGBTQ+","false",""
"","iat","3806","j","260","327498","Leukemia","Physical illness","Physical illness or LGBTQ+","Mental illness or Cishet","Physical illness or LGBTQ+","true",""
"","iat","3679","j","262","331431","Pneumonia","Physical illness","Physical illness or LGBTQ+","Mental illness or Cishet","Physical illness or LGBTQ+","true",""
"","iat","1146","f","264","332834","Biological","Cishet","Mental illness or Cishet","Mental illness or Cishet","Physical illness or LGBTQ+","true",""
"","iat","1431","f","266","334521","Conformity","Cishet","Mental illness or Cishet","Mental illness or Cishet","Physical illness or LGBTQ+","true",""
"","iat","1197","j","268","335973","Genderqueer","LGBTQ+","Physical illness or LGBTQ+","Mental illness or Cishet","Physical illness or LGBTQ+","true",""
"","iat","1009","j","270","337237","Androgynous","LGBTQ+","Physical illness or LGBTQ+","Mental illness or Cishet","Physical illness or LGBTQ+","true",""
"","iat","1095","f","272","338588","Psychosis","Mental illness","Mental illness or Cishet","Mental illness or Cishet","Physical illness or LGBTQ+","true",""
"","iat","1507","j","274","340350","Diversity","LGBTQ+","Physical illness or LGBTQ+","Mental illness or Cishet","Physical illness or LGBTQ+","true",""
"","iat","1237","f","276","341842","Hetero","Cishet","Mental illness or Cishet","Mental illness or Cishet","Physical illness or LGBTQ+","true",""
"","iat","1299","f","278","343394","Asthma","Physical illness","Physical illness or LGBTQ+","Mental illness or Cishet","Physical illness or LGBTQ+","false",""
"","iat","3014","f","280","346664","Epilepsy","Physical illness","Physical illness or LGBTQ+","Mental illness or Cishet","Physical illness or LGBTQ+","false",""
"","iat","1755","j","282","348674","Inclusivity","LGBTQ+","Physical illness or LGBTQ+","Mental illness or Cishet","Physical illness or LGBTQ+","true",""
"","iat","2901","f","284","351829","Heteronormative","Cishet","Mental illness or Cishet","Mental illness or Cishet","Physical illness or LGBTQ+","true",""
"","iat","1646","f","286","353731","Anorexia","Mental illness","Mental illness or Cishet","Mental illness or Cishet","Physical illness or LGBTQ+","true",""
"","iat","784","f","288","354769","Bipolar Disorder","Mental illness","Mental illness or Cishet","Mental illness or Cishet","Physical illness or LGBTQ+","true",""
"","iat","2988","f","290","358011","Cisgendered","Cishet","Mental illness or Cishet","Mental illness or Cishet","Physical illness or LGBTQ+","true",""
"","iat","671","f","292","358935","Panic Disorder","Mental illness","Mental illness or Cishet","Mental illness or Cishet","Physical illness or LGBTQ+","true",""
"","iat","1374","j","294","360565","Bisexual","LGBTQ+","Physical illness or LGBTQ+","Mental illness or Cishet","Physical illness or LGBTQ+","true",""
"","Questionnaire","84492","{""question1"":3,""question2"":2,""question3"":2,""question4"":3,""question5"":1,""question6"":3,""question7"":2,""question8"":2,""question9"":1,""question10"":4,""question11"":3,""question12"":2,""question13"":3,""question14"":3,""question15"":3}","296","445317","","","","","","","[0,1,2,3,4,5,6,7,8,9,10,11,12,13,14]"
