"whichPrime","trialType","rt","response","trial_index","time_elapsed","word","expectedCategory","expectedCategoryAsDisplayed","leftCategory","rightCategory","correct","question_order"
"Control","prime","20885"," ","2","31839","","","","","","",""
"","iat","1853","j","5","47740","Meningitis","Physical illness","Physical illness","Mental illness","Physical illness","true",""
"","iat","1240","j","7","49234","Arthritis","Physical illness","Physical illness","Mental illness","Physical illness","true",""
"","iat","970","f","9","50457","Schizophrenia","Mental illness","Mental illness","Mental illness","Physical illness","true",""
"","iat","909","j","11","51619","Common Cold","Physical illness","Physical illness","Mental illness","Physical illness","true",""
"","iat","890","f","13","52763","Epilepsy","Physical illness","Physical illness","Mental illness","Physical illness","false",""
"","iat","837","f","15","53854","Psychosis","Mental illness","Mental illness","Mental illness","Physical illness","true",""
"","iat","1236","f","17","55342","Anxiety","Mental illness","Mental illness","Mental illness","Physical illness","true",""
"","iat","1035","j","19","56629","Arthritis","Physical illness","Physical illness","Mental illness","Physical illness","true",""
"","iat","1200","f","21","58083","Migraine","Physical illness","Physical illness","Mental illness","Physical illness","false",""
"","iat","970","f","23","59307","Panic Disorder","Mental illness","Mental illness","Mental illness","Physical illness","true",""
"","iat","1901","j","25","61462","Asthma","Physical illness","Physical illness","Mental illness","Physical illness","true",""
"","iat","966","f","27","62682","Depression","Mental illness","Mental illness","Mental illness","Physical illness","true",""
"","iat","908","j","29","63844","Leukemia","Physical illness","Physical illness","Mental illness","Physical illness","true",""
"","iat","1020","j","31","65115","Diabetes","Physical illness","Physical illness","Mental illness","Physical illness","true",""
"","iat","962","f","33","66330","Migraine","Physical illness","Physical illness","Mental illness","Physical illness","false",""
"","iat","1790","f","35","68372","Depression","Mental illness","Mental illness","Mental illness","Physical illness","true",""
"","iat","815","f","37","69440","Anxiety","Mental illness","Mental illness","Mental illness","Physical illness","true",""
"","iat","849","f","39","70543","Panic Disorder","Mental illness","Mental illness","Mental illness","Physical illness","true",""
"","iat","1246","j","41","72043","Influenza","Physical illness","Physical illness","Mental illness","Physical illness","true",""
"","iat","1038","f","43","73335","Autism","Mental illness","Mental illness","Mental illness","Physical illness","true",""
"","iat","1886","f","45","75475","Epilepsy","Physical illness","Physical illness","Mental illness","Physical illness","false",""
"","iat","974","j","47","76703","Influenza","Physical illness","Physical illness","Mental illness","Physical illness","true",""
"","iat","1136","f","49","78091","Anorexia","Mental illness","Mental illness","Mental illness","Physical illness","true",""
"","iat","1855","j","51","80199","Pneumonia","Physical illness","Physical illness","Mental illness","Physical illness","true",""
"","iat","846","f","53","81298","Psychosis","Mental illness","Mental illness","Mental illness","Physical illness","true",""
"","iat","1669","f","55","83220","Autism","Mental illness","Mental illness","Mental illness","Physical illness","true",""
"","iat","885","f","57","84357","Bipolar Disorder","Mental illness","Mental illness","Mental illness","Physical illness","true",""
"","iat","908","j","59","85520","Meningitis","Physical illness","Physical illness","Mental illness","Physical illness","true",""
"","iat","954","f","61","86727","Anorexia","Mental illness","Mental illness","Mental illness","Physical illness","true",""
"","iat","886","f","63","87866","OCD","Mental illness","Mental illness","Mental illness","Physical illness","true",""
"","iat","921","f","65","89039","PTSD","Mental illness","Mental illness","Mental illness","Physical illness","true",""
"","iat","829","f","67","90121","PTSD","Mental illness","Mental illness","Mental illness","Physical illness","true",""
"","iat","1241","j","69","91615","Asthma","Physical illness","Physical illness","Mental illness","Physical illness","true",""
"","iat","1156","f","71","93026","Bipolar Disorder","Mental illness","Mental illness","Mental illness","Physical illness","true",""
"","iat","930","j","73","94208","Pneumonia","Physical illness","Physical illness","Mental illness","Physical illness","true",""
"","iat","1106","j","75","95568","Leukemia","Physical illness","Physical illness","Mental illness","Physical illness","true",""
"","iat","1458","f","78","107670","Queerness","LGBTQ+","LGBTQ+","LGBTQ+","Cishet","true",""
"","iat","1126","j","80","109050","Cisgendered","Cishet","Cishet","LGBTQ+","Cishet","true",""
"","iat","1202","j","82","110505","Conformity","Cishet","Cishet","LGBTQ+","Cishet","true",""
"","iat","1226","f","84","111997","Androgynous","LGBTQ+","LGBTQ+","LGBTQ+","Cishet","true",""
"","iat","4382","j","86","116729","Biological","Cishet","Cishet","LGBTQ+","Cishet","true",""
"","iat","1718","j","88","118699","Hetero","Cishet","Cishet","LGBTQ+","Cishet","true",""
"","iat","1231","f","90","120182","Fluidity","LGBTQ+","LGBTQ+","LGBTQ+","Cishet","true",""
"","iat","1174","j","92","121610","Traditional","Cishet","Cishet","LGBTQ+","Cishet","true",""
"","iat","1392","f","94","123255","Androgynous","LGBTQ+","LGBTQ+","LGBTQ+","Cishet","true",""
"","iat","1083","j","96","124591","Heteronormative","Cishet","Cishet","LGBTQ+","Cishet","true",""
"","iat","2764","f","98","127609","Inclusivity","LGBTQ+","LGBTQ+","LGBTQ+","Cishet","true",""
"","iat","1242","f","100","129103","Queerness","LGBTQ+","LGBTQ+","LGBTQ+","Cishet","true",""
"","iat","1173","f","102","130529","Pansexual","LGBTQ+","LGBTQ+","LGBTQ+","Cishet","true",""
"","iat","945","j","104","131726","Straight","Cishet","Cishet","LGBTQ+","Cishet","true",""
"","iat","867","j","106","132846","Conformity","Cishet","Cishet","LGBTQ+","Cishet","true",""
"","iat","929","j","108","134029","Biological","Cishet","Cishet","LGBTQ+","Cishet","true",""
"","iat","1715","j","110","135997","Usual","Cishet","Cishet","LGBTQ+","Cishet","true",""
"","iat","2228","j","112","138478","Cissexual","Cishet","Cishet","LGBTQ+","Cishet","true",""
"","iat","5531","f","114","144263","Nonbinary","LGBTQ+","LGBTQ+","LGBTQ+","Cishet","true",""
"","iat","3153","j","116","147670","Hetero","Cishet","Cishet","LGBTQ+","Cishet","true",""
"","iat","1898","j","118","149821","Straight","Cishet","Cishet","LGBTQ+","Cishet","true",""
"","iat","941","j","120","151015","Usual","Cishet","Cishet","LGBTQ+","Cishet","true",""
"","iat","1051","f","122","152319","Inclusivity","LGBTQ+","LGBTQ+","LGBTQ+","Cishet","true",""
"","iat","1017","f","124","153588","Bisexual","LGBTQ+","LGBTQ+","LGBTQ+","Cishet","true",""
"","iat","756","f","126","154597","Transgender","LGBTQ+","LGBTQ+","LGBTQ+","Cishet","true",""
"","iat","1046","f","128","155897","Heterosexual","Cishet","Cishet","LGBTQ+","Cishet","false",""
"","iat","2970","f","130","159119","Transgender","LGBTQ+","LGBTQ+","LGBTQ+","Cishet","true",""
"","iat","1785","f","132","161158","Genderqueer","LGBTQ+","LGBTQ+","LGBTQ+","Cishet","true",""
"","iat","1692","j","134","163102","Heteronormative","Cishet","Cishet","LGBTQ+","Cishet","true",""
"","iat","2465","f","136","165820","Pansexual","LGBTQ+","LGBTQ+","LGBTQ+","Cishet","true",""
"","iat","1516","f","138","167588","Diversity","LGBTQ+","LGBTQ+","LGBTQ+","Cishet","true",""
"","iat","885","f","140","168726","Diversity","LGBTQ+","LGBTQ+","LGBTQ+","Cishet","true",""
"","iat","908","f","142","169888","Genderqueer","LGBTQ+","LGBTQ+","LGBTQ+","Cishet","true",""
"","iat","903","j","144","171045","Cissexual","Cishet","Cishet","LGBTQ+","Cishet","true",""
"","iat","898","j","146","172196","Traditional","Cishet","Cishet","LGBTQ+","Cishet","true",""
"","iat","844","j","148","173293","Fluidity","LGBTQ+","LGBTQ+","LGBTQ+","Cishet","false",""
"","iat","2668","f","151","183746","Fluidity","LGBTQ+","Physical illness or LGBTQ+","Physical illness or LGBTQ+","Mental illness or Cishet","true",""
"","iat","3113","j","153","187111","Bipolar Disorder","Mental illness","Mental illness or Cishet","Physical illness or LGBTQ+","Mental illness or Cishet","true",""
"","iat","2544","j","155","189909","Panic Disorder","Mental illness","Mental illness or Cishet","Physical illness or LGBTQ+","Mental illness or Cishet","true",""
"","iat","1256","f","157","191418","Traditional","Cishet","Mental illness or Cishet","Physical illness or LGBTQ+","Mental illness or Cishet","false",""
"","iat","2816","f","159","194486","Nonbinary","LGBTQ+","Physical illness or LGBTQ+","Physical illness or LGBTQ+","Mental illness or Cishet","true",""
"","iat","1952","f","161","196691","Androgynous","LGBTQ+","Physical illness or LGBTQ+","Physical illness or LGBTQ+","Mental illness or Cishet","true",""
"","iat","1539","f","163","198483","Pneumonia","Physical illness","Physical illness or LGBTQ+","Physical illness or LGBTQ+","Mental illness or Cishet","true",""
"","iat","1187","f","165","199924","Arthritis","Physical illness","Physical illness or LGBTQ+","Physical illness or LGBTQ+","Mental illness or Cishet","true",""
"","iat","1094","j","167","201271","Usual","Cishet","Mental illness or Cishet","Physical illness or LGBTQ+","Mental illness or Cishet","true",""
"","iat","1778","j","169","203302","Schizophrenia","Mental illness","Mental illness or Cishet","Physical illness or LGBTQ+","Mental illness or Cishet","true",""
"","iat","2172","j","171","205726","Cisgendered","Cishet","Mental illness or Cishet","Physical illness or LGBTQ+","Mental illness or Cishet","true",""
"","iat","2756","j","173","208735","Psychosis","Mental illness","Mental illness or Cishet","Physical illness or LGBTQ+","Mental illness or Cishet","true",""
"","iat","1851","j","175","210839","Heterosexual","Cishet","Mental illness or Cishet","Physical illness or LGBTQ+","Mental illness or Cishet","true",""
"","iat","1774","j","177","212866","Conformity","Cishet","Mental illness or Cishet","Physical illness or LGBTQ+","Mental illness or Cishet","true",""
"","iat","1172","j","179","214291","PTSD","Mental illness","Mental illness or Cishet","Physical illness or LGBTQ+","Mental illness or Cishet","true",""
"","iat","1076","j","181","215620","Anorexia","Mental illness","Mental illness or Cishet","Physical illness or LGBTQ+","Mental illness or Cishet","true",""
"","iat","1120","j","183","216994","Queerness","LGBTQ+","Physical illness or LGBTQ+","Physical illness or LGBTQ+","Mental illness or Cishet","false",""
"","iat","1987","f","185","219233","Genderqueer","LGBTQ+","Physical illness or LGBTQ+","Physical illness or LGBTQ+","Mental illness or Cishet","true",""
"","iat","1540","j","187","221025","Straight","Cishet","Mental illness or Cishet","Physical illness or LGBTQ+","Mental illness or Cishet","true",""
"","iat","4920","j","189","226199","Heteronormative","Cishet","Mental illness or Cishet","Physical illness or LGBTQ+","Mental illness or Cishet","true",""
"","iat","3946","j","191","230398","Transgender","LGBTQ+","Physical illness or LGBTQ+","Physical illness or LGBTQ+","Mental illness or Cishet","false",""
"","iat","2765","f","193","233416","Pansexual","LGBTQ+","Physical illness or LGBTQ+","Physical illness or LGBTQ+","Mental illness or Cishet","true",""
"","iat","1953","j","195","235622","Biological","Cishet","Mental illness or Cishet","Physical illness or LGBTQ+","Mental illness or Cishet","true",""
"","iat","1849","f","197","237723","Meningitis","Physical illness","Physical illness or LGBTQ+","Physical illness or LGBTQ+","Mental illness or Cishet","true",""
"","iat","3104","f","199","241079","Asthma","Physical illness","Physical illness or LGBTQ+","Physical illness or LGBTQ+","Mental illness or Cishet","true",""
"","iat","1087","f","201","242420","Diabetes","Physical illness","Physical illness or LGBTQ+","Physical illness or LGBTQ+","Mental illness or Cishet","true",""
"","iat","2847","f","203","245519","Bisexual","LGBTQ+","Physical illness or LGBTQ+","Physical illness or LGBTQ+","Mental illness or Cishet","true",""
"","iat","1361","j","205","247133","Epilepsy","Physical illness","Physical illness or LGBTQ+","Physical illness or LGBTQ+","Mental illness or Cishet","false",""
"","iat","1182","j","207","248568","Autism","Mental illness","Mental illness or Cishet","Physical illness or LGBTQ+","Mental illness or Cishet","true",""
"","iat","5517","j","209","254339","Inclusivity","LGBTQ+","Physical illness or LGBTQ+","Physical illness or LGBTQ+","Mental illness or Cishet","false",""
"","iat","2392","j","211","256985","Cissexual","Cishet","Mental illness or Cishet","Physical illness or LGBTQ+","Mental illness or Cishet","true",""
"","iat","1256","f","213","258494","Common Cold","Physical illness","Physical illness or LGBTQ+","Physical illness or LGBTQ+","Mental illness or Cishet","true",""
"","iat","1256","j","215","260003","Anxiety","Mental illness","Mental illness or Cishet","Physical illness or LGBTQ+","Mental illness or Cishet","true",""
"","iat","1404","f","217","261660","Migraine","Physical illness","Physical illness or LGBTQ+","Physical illness or LGBTQ+","Mental illness or Cishet","true",""
"","iat","2201","j","219","264113","Depression","Mental illness","Mental illness or Cishet","Physical illness or LGBTQ+","Mental illness or Cishet","true",""
"","iat","1004","f","221","265370","Leukemia","Physical illness","Physical illness or LGBTQ+","Physical illness or LGBTQ+","Mental illness or Cishet","true",""
"","iat","2808","j","224","275100","OCD","Mental illness","Mental illness or LGBTQ+","Physical illness or Cishet","Mental illness or LGBTQ+","true",""
"","iat","990","j","226","276343","Anorexia","Mental illness","Mental illness or LGBTQ+","Physical illness or Cishet","Mental illness or LGBTQ+","true",""
"","iat","1030","f","228","277625","Usual","Cishet","Physical illness or Cishet","Physical illness or Cishet","Mental illness or LGBTQ+","true",""
"","iat","1179","f","230","279057","Arthritis","Physical illness","Physical illness or Cishet","Physical illness or Cishet","Mental illness or LGBTQ+","true",""
"","iat","1179","f","232","280489","Heteronormative","Cishet","Physical illness or Cishet","Physical illness or Cishet","Mental illness or LGBTQ+","true",""
"","iat","1602","f","234","282344","Cissexual","Cishet","Physical illness or Cishet","Physical illness or Cishet","Mental illness or LGBTQ+","true",""
"","iat","1005","j","236","283603","Anxiety","Mental illness","Mental illness or LGBTQ+","Physical illness or Cishet","Mental illness or LGBTQ+","true",""
"","iat","1128","j","238","284986","Queerness","LGBTQ+","Mental illness or LGBTQ+","Physical illness or Cishet","Mental illness or LGBTQ+","true",""
"","iat","1063","j","240","286301","Depression","Mental illness","Mental illness or LGBTQ+","Physical illness or Cishet","Mental illness or LGBTQ+","true",""
"","iat","2161","f","242","288715","Common Cold","Physical illness","Physical illness or Cishet","Physical illness or Cishet","Mental illness or LGBTQ+","true",""
"","iat","1686","f","244","290654","Influenza","Physical illness","Physical illness or Cishet","Physical illness or Cishet","Mental illness or LGBTQ+","true",""
"","iat","1066","j","246","291973","Autism","Mental illness","Mental illness or LGBTQ+","Physical illness or Cishet","Mental illness or LGBTQ+","true",""
"","iat","822","j","248","293048","Epilepsy","Physical illness","Physical illness or Cishet","Physical illness or Cishet","Mental illness or LGBTQ+","false",""
"","iat","698","j","250","294000","PTSD","Mental illness","Mental illness or LGBTQ+","Physical illness or Cishet","Mental illness or LGBTQ+","true",""
"","iat","795","f","252","295048","Asthma","Physical illness","Physical illness or Cishet","Physical illness or Cishet","Mental illness or LGBTQ+","true",""
"","iat","1723","f","254","297024","Heterosexual","Cishet","Physical illness or Cishet","Physical illness or Cishet","Mental illness or LGBTQ+","true",""
"","iat","2061","f","256","299337","Diabetes","Physical illness","Physical illness or Cishet","Physical illness or Cishet","Mental illness or LGBTQ+","true",""
"","iat","966","f","258","300556","Biological","Cishet","Physical illness or Cishet","Physical illness or Cishet","Mental illness or LGBTQ+","true",""
"","iat","1052","j","260","301861","Fluidity","LGBTQ+","Mental illness or LGBTQ+","Physical illness or Cishet","Mental illness or LGBTQ+","true",""
"","iat","829","f","262","302944","Traditional","Cishet","Physical illness or Cishet","Physical illness or Cishet","Mental illness or LGBTQ+","true",""
"","iat","1035","j","264","304233","Diversity","LGBTQ+","Mental illness or LGBTQ+","Physical illness or Cishet","Mental illness or LGBTQ+","true",""
"","iat","1158","j","266","305643","Nonbinary","LGBTQ+","Mental illness or LGBTQ+","Physical illness or Cishet","Mental illness or LGBTQ+","true",""
"","iat","1093","f","268","306989","Migraine","Physical illness","Physical illness or Cishet","Physical illness or Cishet","Mental illness or LGBTQ+","true",""
"","iat","1469","f","270","308710","Hetero","Cishet","Physical illness or Cishet","Physical illness or Cishet","Mental illness or LGBTQ+","true",""
"","iat","911","j","272","309874","Psychosis","Mental illness","Mental illness or LGBTQ+","Physical illness or Cishet","Mental illness or LGBTQ+","true",""
"","iat","972","f","274","311100","Straight","Cishet","Physical illness or Cishet","Physical illness or Cishet","Mental illness or LGBTQ+","true",""
"","iat","1557","j","276","312910","Panic Disorder","Mental illness","Mental illness or LGBTQ+","Physical illness or Cishet","Mental illness or LGBTQ+","true",""
"","iat","892","f","278","314054","Inclusivity","LGBTQ+","Mental illness or LGBTQ+","Physical illness or Cishet","Mental illness or LGBTQ+","false",""
"","iat","1592","f","280","315898","Cisgendered","Cishet","Physical illness or Cishet","Physical illness or Cishet","Mental illness or LGBTQ+","true",""
"","iat","1091","f","282","317241","Meningitis","Physical illness","Physical illness or Cishet","Physical illness or Cishet","Mental illness or LGBTQ+","true",""
"","iat","1211","j","284","318704","Pansexual","LGBTQ+","Mental illness or LGBTQ+","Physical illness or Cishet","Mental illness or LGBTQ+","true",""
"","iat","2019","f","286","320975","Pneumonia","Physical illness","Physical illness or Cishet","Physical illness or Cishet","Mental illness or LGBTQ+","true",""
"","iat","2324","j","288","323553","Bisexual","LGBTQ+","Mental illness or LGBTQ+","Physical illness or Cishet","Mental illness or LGBTQ+","true",""
"","iat","986","j","290","324793","Androgynous","LGBTQ+","Mental illness or LGBTQ+","Physical illness or Cishet","Mental illness or LGBTQ+","true",""
"","iat","847","j","292","325893","Transgender","LGBTQ+","Mental illness or LGBTQ+","Physical illness or Cishet","Mental illness or LGBTQ+","true",""
"","iat","1072","j","294","327219","Bipolar Disorder","Mental illness","Mental illness or LGBTQ+","Physical illness or Cishet","Mental illness or LGBTQ+","true",""
"","Questionnaire","95577","{""question1"":2,""question2"":1,""question3"":1,""question4"":1,""question5"":3,""question6"":3,""question7"":3,""question8"":1,""question9"":0,""question10"":4,""question11"":1,""question12"":3,""question13"":1,""question14"":3,""question15"":1}","296","423057","","","","","","","[0,1,2,3,4,5,6,7,8,9,10,11,12,13,14]"
