"whichPrime","trialType","rt","response","trial_index","time_elapsed","word","expectedCategory","expectedCategoryAsDisplayed","leftCategory","rightCategory","correct","question_order"
"CisHet","prime","22100"," ","2","1265385","","","","","","",""
"","iat","1687","j","5","1281261","Bipolar Disorder","Mental illness","Mental illness","Physical illness","Mental illness","true",""
"","iat","1452","j","7","1282976","PTSD","Mental illness","Mental illness","Physical illness","Mental illness","true",""
"","iat","1040","f","9","1284278","Asthma","Physical illness","Physical illness","Physical illness","Mental illness","true",""
"","iat","2097","j","11","1286643","Anorexia","Mental illness","Mental illness","Physical illness","Mental illness","true",""
"","iat","1007","f","13","1287907","Common Cold","Physical illness","Physical illness","Physical illness","Mental illness","true",""
"","iat","1888","f","15","1290053","Influenza","Physical illness","Physical illness","Physical illness","Mental illness","true",""
"","iat","946","j","17","1291258","Panic Disorder","Mental illness","Mental illness","Physical illness","Mental illness","true",""
"","iat","948","j","19","1292465","Schizophrenia","Mental illness","Mental illness","Physical illness","Mental illness","true",""
"","iat","915","f","21","1293648","Arthritis","Physical illness","Physical illness","Physical illness","Mental illness","true",""
"","iat","1680","f","23","1295584","Pneumonia","Physical illness","Physical illness","Physical illness","Mental illness","true",""
"","iat","1314","j","25","1297159","Psychosis","Mental illness","Mental illness","Physical illness","Mental illness","true",""
"","iat","1516","f","27","1298939","Common Cold","Physical illness","Physical illness","Physical illness","Mental illness","true",""
"","iat","847","j","29","1300048","Depression","Mental illness","Mental illness","Physical illness","Mental illness","true",""
"","iat","898","f","31","1301207","Leukemia","Physical illness","Physical illness","Physical illness","Mental illness","true",""
"","iat","906","f","33","1302369","Meningitis","Physical illness","Physical illness","Physical illness","Mental illness","true",""
"","iat","763","j","35","1303396","Migraine","Physical illness","Physical illness","Physical illness","Mental illness","false",""
"","iat","2204","f","37","1305866","Epilepsy","Physical illness","Physical illness","Physical illness","Mental illness","true",""
"","iat","2109","j","39","1308235","Anxiety","Mental illness","Mental illness","Physical illness","Mental illness","true",""
"","iat","1304","f","41","1309802","Migraine","Physical illness","Physical illness","Physical illness","Mental illness","true",""
"","iat","2216","f","43","1312273","Asthma","Physical illness","Physical illness","Physical illness","Mental illness","true",""
"","iat","669","j","45","1313198","Panic Disorder","Mental illness","Mental illness","Physical illness","Mental illness","true",""
"","iat","1445","j","47","1314906","Depression","Mental illness","Mental illness","Physical illness","Mental illness","true",""
"","iat","1831","j","49","1316996","Autism","Mental illness","Mental illness","Physical illness","Mental illness","true",""
"","iat","3330","f","51","1320583","Meningitis","Physical illness","Physical illness","Physical illness","Mental illness","true",""
"","iat","769","j","53","1321606","Schizophrenia","Mental illness","Mental illness","Physical illness","Mental illness","true",""
"","iat","912","f","55","1322778","Pneumonia","Physical illness","Physical illness","Physical illness","Mental illness","true",""
"","iat","1345","f","57","1324381","Diabetes","Physical illness","Physical illness","Physical illness","Mental illness","true",""
"","iat","830","f","59","1325468","Influenza","Physical illness","Physical illness","Physical illness","Mental illness","true",""
"","iat","1284","j","61","1327014","Anorexia","Mental illness","Mental illness","Physical illness","Mental illness","true",""
"","iat","1403","j","63","1328676","PTSD","Mental illness","Mental illness","Physical illness","Mental illness","true",""
"","iat","1224","j","65","1330155","OCD","Mental illness","Mental illness","Physical illness","Mental illness","true",""
"","iat","6176","j","67","1336587","Anxiety","Mental illness","Mental illness","Physical illness","Mental illness","true",""
"","iat","704","f","69","1337557","Diabetes","Physical illness","Physical illness","Physical illness","Mental illness","true",""
"","iat","1925","j","71","1339743","Psychosis","Mental illness","Mental illness","Physical illness","Mental illness","true",""
"","iat","652","j","73","1340647","Autism","Mental illness","Mental illness","Physical illness","Mental illness","true",""
"","iat","6364","f","75","1347264","Epilepsy","Physical illness","Physical illness","Physical illness","Mental illness","true",""
"","iat","2114","f","78","1359392","Fluidity","LGBTQ+","LGBTQ+","LGBTQ+","Cishet","true",""
"","iat","929","j","80","1360574","Heterosexual","Cishet","Cishet","LGBTQ+","Cishet","true",""
"","iat","1055","j","82","1361897","Heteronormative","Cishet","Cishet","LGBTQ+","Cishet","true",""
"","iat","799","j","84","1362953","Heteronormative","Cishet","Cishet","LGBTQ+","Cishet","true",""
"","iat","1086","f","86","1364300","Nonbinary","LGBTQ+","LGBTQ+","LGBTQ+","Cishet","true",""
"","iat","702","j","88","1365257","Traditional","Cishet","Cishet","LGBTQ+","Cishet","true",""
"","iat","1143","f","90","1366664","Diversity","LGBTQ+","LGBTQ+","LGBTQ+","Cishet","true",""
"","iat","2484","f","92","1369405","Inclusivity","LGBTQ+","LGBTQ+","LGBTQ+","Cishet","true",""
"","iat","928","f","94","1370586","Transgender","LGBTQ+","LGBTQ+","LGBTQ+","Cishet","true",""
"","iat","766","j","96","1371609","Cisgendered","Cishet","Cishet","LGBTQ+","Cishet","true",""
"","iat","2148","j","98","1374020","Heterosexual","Cishet","Cishet","LGBTQ+","Cishet","true",""
"","iat","2227","j","100","1376514","Usual","Cishet","Cishet","LGBTQ+","Cishet","true",""
"","iat","944","j","102","1377724","Hetero","Cishet","Cishet","LGBTQ+","Cishet","true",""
"","iat","1585","f","104","1379565","Androgynous","LGBTQ+","LGBTQ+","LGBTQ+","Cishet","true",""
"","iat","1313","j","106","1381144","Cissexual","Cishet","Cishet","LGBTQ+","Cishet","true",""
"","iat","947","f","108","1382353","Pansexual","LGBTQ+","LGBTQ+","LGBTQ+","Cishet","true",""
"","iat","815","j","110","1383425","Hetero","Cishet","Cishet","LGBTQ+","Cishet","true",""
"","iat","3618","j","112","1387304","Biological","Cishet","Cishet","LGBTQ+","Cishet","true",""
"","iat","9591","f","114","1397148","Inclusivity","LGBTQ+","LGBTQ+","LGBTQ+","Cishet","true",""
"","iat","2316","j","116","1399722","Conformity","Cishet","Cishet","LGBTQ+","Cishet","true",""
"","iat","1357","f","118","1401333","Pansexual","LGBTQ+","LGBTQ+","LGBTQ+","Cishet","true",""
"","iat","686","j","120","1402283","Traditional","Cishet","Cishet","LGBTQ+","Cishet","true",""
"","iat","808","f","122","1403354","Diversity","LGBTQ+","LGBTQ+","LGBTQ+","Cishet","true",""
"","iat","719","j","124","1404330","Straight","Cishet","Cishet","LGBTQ+","Cishet","true",""
"","iat","829","f","126","1405420","Genderqueer","LGBTQ+","LGBTQ+","LGBTQ+","Cishet","true",""
"","iat","714","f","128","1406397","Bisexual","LGBTQ+","LGBTQ+","LGBTQ+","Cishet","true",""
"","iat","678","j","130","1407341","Usual","Cishet","Cishet","LGBTQ+","Cishet","true",""
"","iat","698","j","132","1408296","Straight","Cishet","Cishet","LGBTQ+","Cishet","true",""
"","iat","1177","j","134","1409739","Biological","Cishet","Cishet","LGBTQ+","Cishet","true",""
"","iat","627","f","136","1410633","Nonbinary","LGBTQ+","LGBTQ+","LGBTQ+","Cishet","true",""
"","iat","1010","f","138","1411901","Androgynous","LGBTQ+","LGBTQ+","LGBTQ+","Cishet","true",""
"","iat","588","f","140","1412758","Queerness","LGBTQ+","LGBTQ+","LGBTQ+","Cishet","true",""
"","iat","582","f","142","1413594","Transgender","LGBTQ+","LGBTQ+","LGBTQ+","Cishet","true",""
"","iat","693","j","144","1414546","Cissexual","Cishet","Cishet","LGBTQ+","Cishet","true",""
"","iat","798","f","146","1415599","Fluidity","LGBTQ+","LGBTQ+","LGBTQ+","Cishet","true",""
"","iat","660","f","148","1416525","Bisexual","LGBTQ+","LGBTQ+","LGBTQ+","Cishet","true",""
"","iat","857","f","151","1427442","Influenza","Physical illness","Physical illness or Cishet","Physical illness or Cishet","Mental illness or LGBTQ+","true",""
"","iat","1213","j","153","1428914","PTSD","Mental illness","Mental illness or LGBTQ+","Physical illness or Cishet","Mental illness or LGBTQ+","true",""
"","iat","1173","f","155","1430346","Biological","Cishet","Physical illness or Cishet","Physical illness or Cishet","Mental illness or LGBTQ+","true",""
"","iat","1139","j","157","1431745","Nonbinary","LGBTQ+","Mental illness or LGBTQ+","Physical illness or Cishet","Mental illness or LGBTQ+","true",""
"","iat","809","f","159","1432822","Cisgendered","Cishet","Physical illness or Cishet","Physical illness or Cishet","Mental illness or LGBTQ+","true",""
"","iat","727","f","161","1433808","Meningitis","Physical illness","Physical illness or Cishet","Physical illness or Cishet","Mental illness or LGBTQ+","true",""
"","iat","1777","j","163","1435842","Diversity","LGBTQ+","Mental illness or LGBTQ+","Physical illness or Cishet","Mental illness or LGBTQ+","true",""
"","iat","957","j","165","1437064","Anorexia","Mental illness","Mental illness or LGBTQ+","Physical illness or Cishet","Mental illness or LGBTQ+","true",""
"","iat","1109","j","167","1438433","Transgender","LGBTQ+","Mental illness or LGBTQ+","Physical illness or Cishet","Mental illness or LGBTQ+","true",""
"","iat","821","f","169","1439520","Usual","Cishet","Physical illness or Cishet","Physical illness or Cishet","Mental illness or LGBTQ+","true",""
"","iat","862","j","171","1440636","Androgynous","LGBTQ+","Mental illness or LGBTQ+","Physical illness or Cishet","Mental illness or LGBTQ+","true",""
"","iat","2452","f","173","1443352","Migraine","Physical illness","Physical illness or Cishet","Physical illness or Cishet","Mental illness or LGBTQ+","true",""
"","iat","795","f","175","1444410","Asthma","Physical illness","Physical illness or Cishet","Physical illness or Cishet","Mental illness or LGBTQ+","true",""
"","iat","1188","f","177","1445865","Arthritis","Physical illness","Physical illness or Cishet","Physical illness or Cishet","Mental illness or LGBTQ+","true",""
"","iat","750","f","179","1446875","Pneumonia","Physical illness","Physical illness or Cishet","Physical illness or Cishet","Mental illness or LGBTQ+","true",""
"","iat","656","f","181","1447788","Straight","Cishet","Physical illness or Cishet","Physical illness or Cishet","Mental illness or LGBTQ+","true",""
"","iat","718","j","183","1448767","Pansexual","LGBTQ+","Mental illness or LGBTQ+","Physical illness or Cishet","Mental illness or LGBTQ+","true",""
"","iat","3961","j","185","1452990","Inclusivity","LGBTQ+","Mental illness or LGBTQ+","Physical illness or Cishet","Mental illness or LGBTQ+","true",""
"","iat","3390","j","187","1456634","OCD","Mental illness","Mental illness or LGBTQ+","Physical illness or Cishet","Mental illness or LGBTQ+","true",""
"","iat","1845","f","189","1458738","Heterosexual","Cishet","Physical illness or Cishet","Physical illness or Cishet","Mental illness or LGBTQ+","true",""
"","iat","827","f","191","1459817","Epilepsy","Physical illness","Physical illness or Cishet","Physical illness or Cishet","Mental illness or LGBTQ+","true",""
"","iat","1576","j","193","1461655","Psychosis","Mental illness","Mental illness or LGBTQ+","Physical illness or Cishet","Mental illness or LGBTQ+","true",""
"","iat","813","j","195","1462721","Anxiety","Mental illness","Mental illness or LGBTQ+","Physical illness or Cishet","Mental illness or LGBTQ+","true",""
"","iat","644","f","197","1463630","Cissexual","Cishet","Physical illness or Cishet","Physical illness or Cishet","Mental illness or LGBTQ+","true",""
"","iat","1417","j","199","1465307","Fluidity","LGBTQ+","Mental illness or LGBTQ+","Physical illness or Cishet","Mental illness or LGBTQ+","true",""
"","iat","1418","f","201","1466992","Diabetes","Physical illness","Physical illness or Cishet","Physical illness or Cishet","Mental illness or LGBTQ+","true",""
"","iat","2115","j","203","1469361","Conformity","Cishet","Physical illness or Cishet","Physical illness or Cishet","Mental illness or LGBTQ+","false",""
"","iat","2823","f","205","1472437","Hetero","Cishet","Physical illness or Cishet","Physical illness or Cishet","Mental illness or LGBTQ+","true",""
"","iat","1419","f","207","1474111","Heteronormative","Cishet","Physical illness or Cishet","Physical illness or Cishet","Mental illness or LGBTQ+","true",""
"","iat","2910","f","209","1477283","Leukemia","Physical illness","Physical illness or Cishet","Physical illness or Cishet","Mental illness or LGBTQ+","true",""
"","iat","1637","j","211","1479175","Genderqueer","LGBTQ+","Mental illness or LGBTQ+","Physical illness or Cishet","Mental illness or LGBTQ+","true",""
"","iat","3588","j","213","1483023","Bipolar Disorder","Mental illness","Mental illness or LGBTQ+","Physical illness or Cishet","Mental illness or LGBTQ+","true",""
"","iat","1194","j","215","1484478","Panic Disorder","Mental illness","Mental illness or LGBTQ+","Physical illness or Cishet","Mental illness or LGBTQ+","true",""
"","iat","536","j","217","1485273","Schizophrenia","Mental illness","Mental illness or LGBTQ+","Physical illness or Cishet","Mental illness or LGBTQ+","true",""
"","iat","620","j","219","1486152","Autism","Mental illness","Mental illness or LGBTQ+","Physical illness or Cishet","Mental illness or LGBTQ+","true",""
"","iat","447","j","221","1486853","Bisexual","LGBTQ+","Mental illness or LGBTQ+","Physical illness or Cishet","Mental illness or LGBTQ+","true",""
"","iat","2398","j","224","1492928","Cisgendered","Cishet","Mental illness or Cishet","Physical illness or LGBTQ+","Mental illness or Cishet","true",""
"","iat","1050","f","226","1494233","Bisexual","LGBTQ+","Physical illness or LGBTQ+","Physical illness or LGBTQ+","Mental illness or Cishet","true",""
"","iat","1872","f","228","1496369","Transgender","LGBTQ+","Physical illness or LGBTQ+","Physical illness or LGBTQ+","Mental illness or Cishet","true",""
"","iat","4943","j","230","1501570","Anxiety","Mental illness","Mental illness or Cishet","Physical illness or LGBTQ+","Mental illness or Cishet","true",""
"","iat","748","j","232","1502575","Schizophrenia","Mental illness","Mental illness or Cishet","Physical illness or LGBTQ+","Mental illness or Cishet","true",""
"","iat","2490","j","234","1505321","OCD","Mental illness","Mental illness or Cishet","Physical illness or LGBTQ+","Mental illness or Cishet","true",""
"","iat","613","j","236","1506190","Psychosis","Mental illness","Mental illness or Cishet","Physical illness or LGBTQ+","Mental illness or Cishet","true",""
"","iat","939","f","238","1507390","Migraine","Physical illness","Physical illness or LGBTQ+","Physical illness or LGBTQ+","Mental illness or Cishet","true",""
"","iat","3341","f","240","1510990","Androgynous","LGBTQ+","Physical illness or LGBTQ+","Physical illness or LGBTQ+","Mental illness or Cishet","true",""
"","iat","828","j","242","1512086","Heteronormative","Cishet","Mental illness or Cishet","Physical illness or LGBTQ+","Mental illness or Cishet","true",""
"","iat","2574","j","244","1514914","Panic Disorder","Mental illness","Mental illness or Cishet","Physical illness or LGBTQ+","Mental illness or Cishet","true",""
"","iat","1534","f","246","1516709","Genderqueer","LGBTQ+","Physical illness or LGBTQ+","Physical illness or LGBTQ+","Mental illness or Cishet","true",""
"","iat","2041","j","248","1519005","Autism","Mental illness","Mental illness or Cishet","Physical illness or LGBTQ+","Mental illness or Cishet","true",""
"","iat","3969","j","250","1523234","Straight","Cishet","Mental illness or Cishet","Physical illness or LGBTQ+","Mental illness or Cishet","true",""
"","iat","1876","f","252","1525371","Asthma","Physical illness","Physical illness or LGBTQ+","Physical illness or LGBTQ+","Mental illness or Cishet","true",""
"","iat","1013","f","254","1526637","Queerness","LGBTQ+","Physical illness or LGBTQ+","Physical illness or LGBTQ+","Mental illness or Cishet","true",""
"","iat","710","j","256","1527609","Cissexual","Cishet","Mental illness or Cishet","Physical illness or LGBTQ+","Mental illness or Cishet","true",""
"","iat","675","f","258","1528540","Fluidity","LGBTQ+","Physical illness or LGBTQ+","Physical illness or LGBTQ+","Mental illness or Cishet","true",""
"","iat","1166","f","260","1529967","Diabetes","Physical illness","Physical illness or LGBTQ+","Physical illness or LGBTQ+","Mental illness or Cishet","true",""
"","iat","1272","f","262","1531503","Diversity","LGBTQ+","Physical illness or LGBTQ+","Physical illness or LGBTQ+","Mental illness or Cishet","true",""
"","iat","1175","f","264","1532935","Meningitis","Physical illness","Physical illness or LGBTQ+","Physical illness or LGBTQ+","Mental illness or Cishet","true",""
"","iat","1920","j","266","1535112","Traditional","Cishet","Mental illness or Cishet","Physical illness or LGBTQ+","Mental illness or Cishet","true",""
"","iat","2051","f","268","1537430","Pansexual","LGBTQ+","Physical illness or LGBTQ+","Physical illness or LGBTQ+","Mental illness or Cishet","true",""
"","iat","944","f","270","1538635","Influenza","Physical illness","Physical illness or LGBTQ+","Physical illness or LGBTQ+","Mental illness or Cishet","true",""
"","iat","958","j","272","1539855","Usual","Cishet","Mental illness or Cishet","Physical illness or LGBTQ+","Mental illness or Cishet","true",""
"","iat","2816","j","274","1542926","Conformity","Cishet","Mental illness or Cishet","Physical illness or LGBTQ+","Mental illness or Cishet","true",""
"","iat","897","j","276","1544075","Biological","Cishet","Mental illness or Cishet","Physical illness or LGBTQ+","Mental illness or Cishet","true",""
"","iat","1413","f","278","1545746","Inclusivity","LGBTQ+","Physical illness or LGBTQ+","Physical illness or LGBTQ+","Mental illness or Cishet","true",""
"","iat","993","j","280","1546993","Bipolar Disorder","Mental illness","Mental illness or Cishet","Physical illness or LGBTQ+","Mental illness or Cishet","true",""
"","iat","813","f","282","1548065","Leukemia","Physical illness","Physical illness or LGBTQ+","Physical illness or LGBTQ+","Mental illness or Cishet","true",""
"","iat","4732","j","284","1553062","Heterosexual","Cishet","Mental illness or Cishet","Physical illness or LGBTQ+","Mental illness or Cishet","true",""
"","iat","4363","f","286","1557679","Anorexia","Mental illness","Mental illness or Cishet","Physical illness or LGBTQ+","Mental illness or Cishet","false",""
"","iat","6168","j","288","1564115","PTSD","Mental illness","Mental illness or Cishet","Physical illness or LGBTQ+","Mental illness or Cishet","true",""
"","iat","1557","f","290","1565938","Common Cold","Physical illness","Physical illness or LGBTQ+","Physical illness or LGBTQ+","Mental illness or Cishet","true",""
"","iat","715","f","292","1566917","Arthritis","Physical illness","Physical illness or LGBTQ+","Physical illness or LGBTQ+","Mental illness or Cishet","true",""
"","iat","1619","f","294","1568791","Nonbinary","LGBTQ+","Physical illness or LGBTQ+","Physical illness or LGBTQ+","Mental illness or Cishet","true",""
"","Questionnaire","130775","{""question1"":3,""question2"":1,""question3"":0,""question4"":0,""question5"":3,""question6"":4,""question7"":4,""question8"":2,""question9"":0,""question10"":4,""question11"":1,""question12"":4,""question13"":3,""question14"":4,""question15"":2}","296","1699830","","","","","","","[0,1,2,3,4,5,6,7,8,9,10,11,12,13,14]"
