"whichPrime","trialType","rt","response","trial_index","time_elapsed","word","expectedCategory","expectedCategoryAsDisplayed","leftCategory","rightCategory","correct","question_order"
"Queer","prime","15583"," ","2","38010","","","","","","",""
"","iat","1639","j","5","51112","Diabetes","Physical illness","Physical illness","Mental illness","Physical illness","true",""
"","iat","660","f","7","52030","Schizophrenia","Mental illness","Mental illness","Mental illness","Physical illness","true",""
"","iat","913","j","9","53200","Influenza","Physical illness","Physical illness","Mental illness","Physical illness","true",""
"","iat","648","j","11","54103","Pneumonia","Physical illness","Physical illness","Mental illness","Physical illness","true",""
"","iat","572","f","13","54931","PTSD","Mental illness","Mental illness","Mental illness","Physical illness","true",""
"","iat","589","f","15","55777","Schizophrenia","Mental illness","Mental illness","Mental illness","Physical illness","true",""
"","iat","523","f","17","56554","OCD","Mental illness","Mental illness","Mental illness","Physical illness","true",""
"","iat","566","j","19","57375","Influenza","Physical illness","Physical illness","Mental illness","Physical illness","true",""
"","iat","608","f","21","58238","Bipolar Disorder","Mental illness","Mental illness","Mental illness","Physical illness","true",""
"","iat","587","j","23","59079","Migraine","Physical illness","Physical illness","Mental illness","Physical illness","true",""
"","iat","566","j","25","59900","Epilepsy","Physical illness","Physical illness","Mental illness","Physical illness","true",""
"","iat","2411","j","27","62568","Common Cold","Physical illness","Physical illness","Mental illness","Physical illness","true",""
"","iat","917","f","29","63739","Depression","Mental illness","Mental illness","Mental illness","Physical illness","true",""
"","iat","815","j","31","64807","Meningitis","Physical illness","Physical illness","Mental illness","Physical illness","true",""
"","iat","613","f","33","65675","Anxiety","Mental illness","Mental illness","Mental illness","Physical illness","true",""
"","iat","522","f","35","66450","PTSD","Mental illness","Mental illness","Mental illness","Physical illness","true",""
"","iat","682","j","37","67386","Migraine","Physical illness","Physical illness","Mental illness","Physical illness","true",""
"","iat","688","f","39","68329","Autism","Mental illness","Mental illness","Mental illness","Physical illness","true",""
"","iat","546","j","41","69129","Pneumonia","Physical illness","Physical illness","Mental illness","Physical illness","true",""
"","iat","668","f","43","70050","Panic Disorder","Mental illness","Mental illness","Mental illness","Physical illness","true",""
"","iat","762","j","45","71066","Arthritis","Physical illness","Physical illness","Mental illness","Physical illness","true",""
"","iat","542","f","47","71862","Autism","Mental illness","Mental illness","Mental illness","Physical illness","true",""
"","iat","610","f","49","72726","Bipolar Disorder","Mental illness","Mental illness","Mental illness","Physical illness","true",""
"","iat","698","j","51","73681","Leukemia","Physical illness","Physical illness","Mental illness","Physical illness","true",""
"","iat","896","f","53","74835","Depression","Mental illness","Mental illness","Mental illness","Physical illness","true",""
"","iat","1116","j","55","76221","Diabetes","Physical illness","Physical illness","Mental illness","Physical illness","true",""
"","iat","667","f","57","77142","Psychosis","Mental illness","Mental illness","Mental illness","Physical illness","true",""
"","iat","499","f","59","77895","Anorexia","Mental illness","Mental illness","Mental illness","Physical illness","true",""
"","iat","1857","j","61","80007","Epilepsy","Physical illness","Physical illness","Mental illness","Physical illness","true",""
"","iat","2234","j","63","82495","Meningitis","Physical illness","Physical illness","Mental illness","Physical illness","true",""
"","iat","491","f","65","83241","OCD","Mental illness","Mental illness","Mental illness","Physical illness","true",""
"","iat","654","j","67","84148","Leukemia","Physical illness","Physical illness","Mental illness","Physical illness","true",""
"","iat","994","j","69","85395","Asthma","Physical illness","Physical illness","Mental illness","Physical illness","true",""
"","iat","646","f","71","86296","Panic Disorder","Mental illness","Mental illness","Mental illness","Physical illness","true",""
"","iat","1961","j","73","88512","Common Cold","Physical illness","Physical illness","Mental illness","Physical illness","true",""
"","iat","600","f","75","89368","Anxiety","Mental illness","Mental illness","Mental illness","Physical illness","true",""
"","iat","3497","f","78","96486","Usual","Cishet","Cishet","Cishet","LGBTQ+","true",""
"","iat","2357","f","80","99098","Straight","Cishet","Cishet","Cishet","LGBTQ+","true",""
"","iat","1594","f","82","100948","Cissexual","Cishet","Cishet","Cishet","LGBTQ+","true",""
"","iat","1603","f","84","102807","Heterosexual","Cishet","Cishet","Cishet","LGBTQ+","true",""
"","iat","3826","f","86","106887","Biological","Cishet","Cishet","Cishet","LGBTQ+","true",""
"","iat","795","f","88","107938","Usual","Cishet","Cishet","Cishet","LGBTQ+","true",""
"","iat","958","j","90","109151","Diversity","LGBTQ+","LGBTQ+","Cishet","LGBTQ+","true",""
"","iat","597","j","92","110005","Transgender","LGBTQ+","LGBTQ+","Cishet","LGBTQ+","true",""
"","iat","839","f","94","111098","Hetero","Cishet","Cishet","Cishet","LGBTQ+","true",""
"","iat","1358","f","96","112711","Conformity","Cishet","Cishet","Cishet","LGBTQ+","true",""
"","iat","703","j","98","113670","Genderqueer","LGBTQ+","LGBTQ+","Cishet","LGBTQ+","true",""
"","iat","604","j","100","114529","Pansexual","LGBTQ+","LGBTQ+","Cishet","LGBTQ+","true",""
"","iat","619","j","102","115401","Genderqueer","LGBTQ+","LGBTQ+","Cishet","LGBTQ+","true",""
"","iat","588","f","104","116243","Traditional","Cishet","Cishet","Cishet","LGBTQ+","true",""
"","iat","948","f","106","117444","Heteronormative","Cishet","Cishet","Cishet","LGBTQ+","true",""
"","iat","576","j","108","118276","Queerness","LGBTQ+","LGBTQ+","Cishet","LGBTQ+","true",""
"","iat","579","j","110","119109","Pansexual","LGBTQ+","LGBTQ+","Cishet","LGBTQ+","true",""
"","iat","559","j","112","119922","Androgynous","LGBTQ+","LGBTQ+","Cishet","LGBTQ+","true",""
"","iat","725","f","114","120901","Biological","Cishet","Cishet","Cishet","LGBTQ+","true",""
"","iat","716","f","116","121872","Cissexual","Cishet","Cishet","Cishet","LGBTQ+","true",""
"","iat","613","j","118","122740","Transgender","LGBTQ+","LGBTQ+","Cishet","LGBTQ+","true",""
"","iat","877","j","120","123872","Inclusivity","LGBTQ+","LGBTQ+","Cishet","LGBTQ+","true",""
"","iat","781","j","122","124907","Fluidity","LGBTQ+","LGBTQ+","Cishet","LGBTQ+","true",""
"","iat","560","j","124","125722","Bisexual","LGBTQ+","LGBTQ+","Cishet","LGBTQ+","true",""
"","iat","1043","j","126","127019","Nonbinary","LGBTQ+","LGBTQ+","Cishet","LGBTQ+","true",""
"","iat","561","j","128","127836","Androgynous","LGBTQ+","LGBTQ+","Cishet","LGBTQ+","true",""
"","iat","824","j","130","128916","Nonbinary","LGBTQ+","LGBTQ+","Cishet","LGBTQ+","true",""
"","iat","872","f","132","130044","Cisgendered","Cishet","Cishet","Cishet","LGBTQ+","true",""
"","iat","647","j","134","130947","Diversity","LGBTQ+","LGBTQ+","Cishet","LGBTQ+","true",""
"","iat","728","f","136","131930","Traditional","Cishet","Cishet","Cishet","LGBTQ+","true",""
"","iat","609","f","138","132794","Straight","Cishet","Cishet","Cishet","LGBTQ+","true",""
"","iat","768","f","140","133816","Heteronormative","Cishet","Cishet","Cishet","LGBTQ+","true",""
"","iat","1525","j","142","135597","Inclusivity","LGBTQ+","LGBTQ+","Cishet","LGBTQ+","true",""
"","iat","1360","f","144","137212","Cisgendered","Cishet","Cishet","Cishet","LGBTQ+","true",""
"","iat","716","f","146","138182","Hetero","Cishet","Cishet","Cishet","LGBTQ+","true",""
"","iat","556","j","148","138993","Queerness","LGBTQ+","LGBTQ+","Cishet","LGBTQ+","true",""
"","iat","2127","f","151","148384","PTSD","Mental illness","Mental illness or Cishet","Mental illness or Cishet","Physical illness or LGBTQ+","true",""
"","iat","1268","j","153","149908","Influenza","Physical illness","Physical illness or LGBTQ+","Mental illness or Cishet","Physical illness or LGBTQ+","true",""
"","iat","4305","j","155","154468","Genderqueer","LGBTQ+","Physical illness or LGBTQ+","Mental illness or Cishet","Physical illness or LGBTQ+","true",""
"","iat","1150","f","157","155873","Cisgendered","Cishet","Mental illness or Cishet","Mental illness or Cishet","Physical illness or LGBTQ+","true",""
"","iat","1189","j","159","157318","Diversity","LGBTQ+","Physical illness or LGBTQ+","Mental illness or Cishet","Physical illness or LGBTQ+","true",""
"","iat","651","j","161","158223","Transgender","LGBTQ+","Physical illness or LGBTQ+","Mental illness or Cishet","Physical illness or LGBTQ+","true",""
"","iat","643","j","163","159120","Androgynous","LGBTQ+","Physical illness or LGBTQ+","Mental illness or Cishet","Physical illness or LGBTQ+","true",""
"","iat","593","f","165","159968","OCD","Mental illness","Mental illness or Cishet","Mental illness or Cishet","Physical illness or LGBTQ+","true",""
"","iat","1530","f","167","161753","Straight","Cishet","Mental illness or Cishet","Mental illness or Cishet","Physical illness or LGBTQ+","true",""
"","iat","1160","f","169","163169","Traditional","Cishet","Mental illness or Cishet","Mental illness or Cishet","Physical illness or LGBTQ+","true",""
"","iat","924","f","171","164349","Panic Disorder","Mental illness","Mental illness or Cishet","Mental illness or Cishet","Physical illness or LGBTQ+","true",""
"","iat","1009","j","173","165613","Arthritis","Physical illness","Physical illness or LGBTQ+","Mental illness or Cishet","Physical illness or LGBTQ+","true",""
"","iat","1297","f","175","167165","Bipolar Disorder","Mental illness","Mental illness or Cishet","Mental illness or Cishet","Physical illness or LGBTQ+","true",""
"","iat","1095","f","177","168515","Anxiety","Mental illness","Mental illness or Cishet","Mental illness or Cishet","Physical illness or LGBTQ+","true",""
"","iat","1026","j","179","169795","Pansexual","LGBTQ+","Physical illness or LGBTQ+","Mental illness or Cishet","Physical illness or LGBTQ+","true",""
"","iat","695","j","181","170745","Inclusivity","LGBTQ+","Physical illness or LGBTQ+","Mental illness or Cishet","Physical illness or LGBTQ+","true",""
"","iat","1700","f","183","172701","Schizophrenia","Mental illness","Mental illness or Cishet","Mental illness or Cishet","Physical illness or LGBTQ+","true",""
"","iat","3080","j","185","176036","Nonbinary","LGBTQ+","Physical illness or LGBTQ+","Mental illness or Cishet","Physical illness or LGBTQ+","true",""
"","iat","755","j","187","177046","Bisexual","LGBTQ+","Physical illness or LGBTQ+","Mental illness or Cishet","Physical illness or LGBTQ+","true",""
"","iat","1049","j","189","178350","Common Cold","Physical illness","Physical illness or LGBTQ+","Mental illness or Cishet","Physical illness or LGBTQ+","true",""
"","iat","1087","j","191","179693","Fluidity","LGBTQ+","Physical illness or LGBTQ+","Mental illness or Cishet","Physical illness or LGBTQ+","true",""
"","iat","1254","f","193","181202","Heteronormative","Cishet","Mental illness or Cishet","Mental illness or Cishet","Physical illness or LGBTQ+","true",""
"","iat","2288","j","195","183746","Asthma","Physical illness","Physical illness or LGBTQ+","Mental illness or Cishet","Physical illness or LGBTQ+","true",""
"","iat","725","f","197","184726","Hetero","Cishet","Mental illness or Cishet","Mental illness or Cishet","Physical illness or LGBTQ+","true",""
"","iat","662","f","199","185642","Depression","Mental illness","Mental illness or Cishet","Mental illness or Cishet","Physical illness or LGBTQ+","true",""
"","iat","889","f","201","186786","Conformity","Cishet","Mental illness or Cishet","Mental illness or Cishet","Physical illness or LGBTQ+","true",""
"","iat","850","f","203","187892","Biological","Cishet","Mental illness or Cishet","Mental illness or Cishet","Physical illness or LGBTQ+","true",""
"","iat","694","j","205","188842","Diabetes","Physical illness","Physical illness or LGBTQ+","Mental illness or Cishet","Physical illness or LGBTQ+","true",""
"","iat","1929","j","207","191026","Epilepsy","Physical illness","Physical illness or LGBTQ+","Mental illness or Cishet","Physical illness or LGBTQ+","true",""
"","iat","987","j","209","192269","Queerness","LGBTQ+","Physical illness or LGBTQ+","Mental illness or Cishet","Physical illness or LGBTQ+","true",""
"","iat","722","f","211","193247","Anorexia","Mental illness","Mental illness or Cishet","Mental illness or Cishet","Physical illness or LGBTQ+","true",""
"","iat","799","f","213","194300","Psychosis","Mental illness","Mental illness or Cishet","Mental illness or Cishet","Physical illness or LGBTQ+","true",""
"","iat","765","f","215","195320","Heterosexual","Cishet","Mental illness or Cishet","Mental illness or Cishet","Physical illness or LGBTQ+","true",""
"","iat","1147","f","217","196722","Autism","Mental illness","Mental illness or Cishet","Mental illness or Cishet","Physical illness or LGBTQ+","true",""
"","iat","949","j","219","197927","Pneumonia","Physical illness","Physical illness or LGBTQ+","Mental illness or Cishet","Physical illness or LGBTQ+","true",""
"","iat","3833","j","221","202016","Leukemia","Physical illness","Physical illness or LGBTQ+","Mental illness or Cishet","Physical illness or LGBTQ+","true",""
"","iat","3413","j","224","208535","Influenza","Physical illness","Physical illness or Cishet","Mental illness or LGBTQ+","Physical illness or Cishet","true",""
"","iat","914","j","226","209704","Cisgendered","Cishet","Physical illness or Cishet","Mental illness or LGBTQ+","Physical illness or Cishet","true",""
"","iat","2214","j","228","212176","Traditional","Cishet","Physical illness or Cishet","Mental illness or LGBTQ+","Physical illness or Cishet","true",""
"","iat","1417","j","230","213847","Biological","Cishet","Physical illness or Cishet","Mental illness or LGBTQ+","Physical illness or Cishet","true",""
"","iat","807","j","232","214909","Arthritis","Physical illness","Physical illness or Cishet","Mental illness or LGBTQ+","Physical illness or Cishet","true",""
"","iat","974","f","234","216139","Androgynous","LGBTQ+","Mental illness or LGBTQ+","Mental illness or LGBTQ+","Physical illness or Cishet","true",""
"","iat","649","j","236","217043","Common Cold","Physical illness","Physical illness or Cishet","Mental illness or LGBTQ+","Physical illness or Cishet","true",""
"","iat","2769","f","238","220067","Psychosis","Mental illness","Mental illness or LGBTQ+","Mental illness or LGBTQ+","Physical illness or Cishet","true",""
"","iat","1032","j","240","221354","Cissexual","Cishet","Physical illness or Cishet","Mental illness or LGBTQ+","Physical illness or Cishet","true",""
"","iat","1492","j","242","223101","Epilepsy","Physical illness","Physical illness or Cishet","Mental illness or LGBTQ+","Physical illness or Cishet","true",""
"","iat","1045","f","244","224401","Nonbinary","LGBTQ+","Mental illness or LGBTQ+","Mental illness or LGBTQ+","Physical illness or Cishet","true",""
"","iat","3587","j","246","228243","Diabetes","Physical illness","Physical illness or Cishet","Mental illness or LGBTQ+","Physical illness or Cishet","true",""
"","iat","1755","f","248","230253","Diversity","LGBTQ+","Mental illness or LGBTQ+","Mental illness or LGBTQ+","Physical illness or Cishet","true",""
"","iat","1339","j","250","231847","Heterosexual","Cishet","Physical illness or Cishet","Mental illness or LGBTQ+","Physical illness or Cishet","true",""
"","iat","885","f","252","232987","Pansexual","LGBTQ+","Mental illness or LGBTQ+","Mental illness or LGBTQ+","Physical illness or Cishet","true",""
"","iat","718","f","254","233959","Fluidity","LGBTQ+","Mental illness or LGBTQ+","Mental illness or LGBTQ+","Physical illness or Cishet","true",""
"","iat","1781","f","256","235995","Anorexia","Mental illness","Mental illness or LGBTQ+","Mental illness or LGBTQ+","Physical illness or Cishet","true",""
"","iat","859","j","258","237109","Asthma","Physical illness","Physical illness or Cishet","Mental illness or LGBTQ+","Physical illness or Cishet","true",""
"","iat","1193","j","260","238557","Pneumonia","Physical illness","Physical illness or Cishet","Mental illness or LGBTQ+","Physical illness or Cishet","true",""
"","iat","591","j","262","239403","Migraine","Physical illness","Physical illness or Cishet","Mental illness or LGBTQ+","Physical illness or Cishet","true",""
"","iat","743","f","264","240401","OCD","Mental illness","Mental illness or LGBTQ+","Mental illness or LGBTQ+","Physical illness or Cishet","true",""
"","iat","801","f","266","241458","Bipolar Disorder","Mental illness","Mental illness or LGBTQ+","Mental illness or LGBTQ+","Physical illness or Cishet","true",""
"","iat","1972","j","268","243685","Heteronormative","Cishet","Physical illness or Cishet","Mental illness or LGBTQ+","Physical illness or Cishet","true",""
"","iat","1130","f","270","245070","Inclusivity","LGBTQ+","Mental illness or LGBTQ+","Mental illness or LGBTQ+","Physical illness or Cishet","true",""
"","iat","914","f","272","246238","PTSD","Mental illness","Mental illness or LGBTQ+","Mental illness or LGBTQ+","Physical illness or Cishet","true",""
"","iat","1786","j","274","248279","Usual","Cishet","Physical illness or Cishet","Mental illness or LGBTQ+","Physical illness or Cishet","true",""
"","iat","729","f","276","249262","Anxiety","Mental illness","Mental illness or LGBTQ+","Mental illness or LGBTQ+","Physical illness or Cishet","true",""
"","iat","1084","f","278","250601","Queerness","LGBTQ+","Mental illness or LGBTQ+","Mental illness or LGBTQ+","Physical illness or Cishet","true",""
"","iat","652","f","280","251508","Transgender","LGBTQ+","Mental illness or LGBTQ+","Mental illness or LGBTQ+","Physical illness or Cishet","true",""
"","iat","2181","j","282","253944","Straight","Cishet","Physical illness or Cishet","Mental illness or LGBTQ+","Physical illness or Cishet","true",""
"","iat","798","f","284","254998","Genderqueer","LGBTQ+","Mental illness or LGBTQ+","Mental illness or LGBTQ+","Physical illness or Cishet","true",""
"","iat","1540","f","286","256793","Autism","Mental illness","Mental illness or LGBTQ+","Mental illness or LGBTQ+","Physical illness or Cishet","true",""
"","iat","1288","f","288","258335","Panic Disorder","Mental illness","Mental illness or LGBTQ+","Mental illness or LGBTQ+","Physical illness or Cishet","true",""
"","iat","848","f","290","259438","Bisexual","LGBTQ+","Mental illness or LGBTQ+","Mental illness or LGBTQ+","Physical illness or Cishet","true",""
"","iat","1638","j","292","261331","Leukemia","Physical illness","Physical illness or Cishet","Mental illness or LGBTQ+","Physical illness or Cishet","true",""
"","iat","924","j","294","262509","Conformity","Cishet","Physical illness or Cishet","Mental illness or LGBTQ+","Physical illness or Cishet","true",""
"","Questionnaire","104468","{""question1"":1,""question2"":3,""question3"":0,""question4"":1,""question5"":2,""question6"":3,""question7"":3,""question8"":0,""question9"":0,""question10"":4,""question11"":1,""question12"":0,""question13"":"""",""question14"":4,""question15"":1}","296","367243","","","","","","","[0,1,2,3,4,5,6,7,8,9,10,11,12,13,14]"
