"whichPrime","trialType","rt","response","trial_index","time_elapsed","word","expectedCategory","expectedCategoryAsDisplayed","leftCategory","rightCategory","correct","question_order"
"CisHet","prime","26143"," ","2","41869","","","","","","",""
"","iat","3520","f","5","57462","Cissexual","Cishet","Cishet","Cishet","LGBTQ+","true",""
"","iat","2699","j","7","60417","Fluidity","LGBTQ+","LGBTQ+","Cishet","LGBTQ+","true",""
"","iat","3473","f","9","64144","Biological","Cishet","Cishet","Cishet","LGBTQ+","true",""
"","iat","2669","f","11","67067","Traditional","Cishet","Cishet","Cishet","LGBTQ+","true",""
"","iat","1721","f","13","69042","Usual","Cishet","Cishet","Cishet","LGBTQ+","true",""
"","iat","996","j","15","70292","Inclusivity","LGBTQ+","LGBTQ+","Cishet","LGBTQ+","true",""
"","iat","1529","j","17","72075","Fluidity","LGBTQ+","LGBTQ+","Cishet","LGBTQ+","true",""
"","iat","2187","f","19","74517","Conformity","Cishet","Cishet","Cishet","LGBTQ+","true",""
"","iat","1347","j","21","76118","Androgynous","LGBTQ+","LGBTQ+","Cishet","LGBTQ+","true",""
"","iat","824","j","23","77198","Queerness","LGBTQ+","LGBTQ+","Cishet","LGBTQ+","true",""
"","iat","1323","f","25","78774","Hetero","Cishet","Cishet","Cishet","LGBTQ+","true",""
"","iat","1066","f","27","80094","Usual","Cishet","Cishet","Cishet","LGBTQ+","true",""
"","iat","2311","f","29","82659","Heteronormative","Cishet","Cishet","Cishet","LGBTQ+","true",""
"","iat","896","j","31","83810","Bisexual","LGBTQ+","LGBTQ+","Cishet","LGBTQ+","true",""
"","iat","1191","f","33","85254","Cissexual","Cishet","Cishet","Cishet","LGBTQ+","true",""
"","iat","2046","f","35","87555","Traditional","Cishet","Cishet","Cishet","LGBTQ+","true",""
"","iat","2091","f","37","89899","Heteronormative","Cishet","Cishet","Cishet","LGBTQ+","true",""
"","iat","1463","j","39","91615","Diversity","LGBTQ+","LGBTQ+","Cishet","LGBTQ+","true",""
"","iat","966","j","41","92834","Nonbinary","LGBTQ+","LGBTQ+","Cishet","LGBTQ+","true",""
"","iat","1048","j","43","94136","Pansexual","LGBTQ+","LGBTQ+","Cishet","LGBTQ+","true",""
"","iat","450","j","45","94840","Pansexual","LGBTQ+","LGBTQ+","Cishet","LGBTQ+","true",""
"","iat","12172","j","47","107268","Androgynous","LGBTQ+","LGBTQ+","Cishet","LGBTQ+","true",""
"","iat","637","f","49","108158","Heterosexual","Cishet","Cishet","Cishet","LGBTQ+","true",""
"","iat","619","f","51","109031","Straight","Cishet","Cishet","Cishet","LGBTQ+","true",""
"","iat","492","f","53","109777","Straight","Cishet","Cishet","Cishet","LGBTQ+","true",""
"","iat","739","j","55","110772","Queerness","LGBTQ+","LGBTQ+","Cishet","LGBTQ+","true",""
"","iat","987","f","57","112013","Cisgendered","Cishet","Cishet","Cishet","LGBTQ+","true",""
"","iat","1162","j","59","113430","Genderqueer","LGBTQ+","LGBTQ+","Cishet","LGBTQ+","true",""
"","iat","675","j","61","114359","Transgender","LGBTQ+","LGBTQ+","Cishet","LGBTQ+","true",""
"","iat","653","j","63","115266","Nonbinary","LGBTQ+","LGBTQ+","Cishet","LGBTQ+","true",""
"","iat","626","f","65","116146","Hetero","Cishet","Cishet","Cishet","LGBTQ+","true",""
"","iat","713","f","67","117113","Biological","Cishet","Cishet","Cishet","LGBTQ+","true",""
"","iat","2880","f","69","120247","Heterosexual","Cishet","Cishet","Cishet","LGBTQ+","true",""
"","iat","776","j","71","121276","Diversity","LGBTQ+","LGBTQ+","Cishet","LGBTQ+","true",""
"","iat","634","j","73","122164","Inclusivity","LGBTQ+","LGBTQ+","Cishet","LGBTQ+","true",""
"","iat","1288","j","75","123706","Transgender","LGBTQ+","LGBTQ+","Cishet","LGBTQ+","true",""
"","iat","1566","j","78","130167","Anxiety","Mental illness","Mental illness","Physical illness","Mental illness","true",""
"","iat","1661","j","80","132081","Bipolar Disorder","Mental illness","Mental illness","Physical illness","Mental illness","true",""
"","iat","1018","j","82","133354","Depression","Mental illness","Mental illness","Physical illness","Mental illness","true",""
"","iat","881","f","84","134489","Epilepsy","Physical illness","Physical illness","Physical illness","Mental illness","true",""
"","iat","947","j","86","135689","Depression","Mental illness","Mental illness","Physical illness","Mental illness","true",""
"","iat","785","f","88","136728","Arthritis","Physical illness","Physical illness","Physical illness","Mental illness","true",""
"","iat","1263","j","90","138244","Psychosis","Mental illness","Mental illness","Physical illness","Mental illness","true",""
"","iat","892","j","92","139391","Schizophrenia","Mental illness","Mental illness","Physical illness","Mental illness","true",""
"","iat","1064","j","94","140707","Autism","Mental illness","Mental illness","Physical illness","Mental illness","true",""
"","iat","1252","j","96","142213","Autism","Mental illness","Mental illness","Physical illness","Mental illness","true",""
"","iat","973","j","98","143440","Panic Disorder","Mental illness","Mental illness","Physical illness","Mental illness","true",""
"","iat","882","f","100","144576","Leukemia","Physical illness","Physical illness","Physical illness","Mental illness","true",""
"","iat","870","f","102","145701","Influenza","Physical illness","Physical illness","Physical illness","Mental illness","true",""
"","iat","1287","f","104","147242","Meningitis","Physical illness","Physical illness","Physical illness","Mental illness","true",""
"","iat","1149","f","106","148645","Migraine","Physical illness","Physical illness","Physical illness","Mental illness","true",""
"","iat","968","f","108","149867","Pneumonia","Physical illness","Physical illness","Physical illness","Mental illness","true",""
"","iat","820","f","110","150940","Influenza","Physical illness","Physical illness","Physical illness","Mental illness","true",""
"","iat","548","f","112","151742","Pneumonia","Physical illness","Physical illness","Physical illness","Mental illness","true",""
"","iat","994","j","114","152989","Psychosis","Mental illness","Mental illness","Physical illness","Mental illness","true",""
"","iat","974","j","116","154216","Anxiety","Mental illness","Mental illness","Physical illness","Mental illness","true",""
"","iat","743","f","118","155212","Leukemia","Physical illness","Physical illness","Physical illness","Mental illness","true",""
"","iat","1243","j","120","156710","OCD","Mental illness","Mental illness","Physical illness","Mental illness","true",""
"","iat","884","f","122","157848","Asthma","Physical illness","Physical illness","Physical illness","Mental illness","true",""
"","iat","1781","j","124","159884","PTSD","Mental illness","Mental illness","Physical illness","Mental illness","true",""
"","iat","820","f","126","160958","Epilepsy","Physical illness","Physical illness","Physical illness","Mental illness","true",""
"","iat","1146","f","128","162358","Asthma","Physical illness","Physical illness","Physical illness","Mental illness","true",""
"","iat","960","f","130","163571","Common Cold","Physical illness","Physical illness","Physical illness","Mental illness","true",""
"","iat","2134","j","132","165960","Anorexia","Mental illness","Mental illness","Physical illness","Mental illness","true",""
"","iat","1228","f","134","167442","Diabetes","Physical illness","Physical illness","Physical illness","Mental illness","true",""
"","iat","740","j","136","168435","OCD","Mental illness","Mental illness","Physical illness","Mental illness","true",""
"","iat","1306","f","138","169995","Diabetes","Physical illness","Physical illness","Physical illness","Mental illness","true",""
"","iat","712","j","140","170961","PTSD","Mental illness","Mental illness","Physical illness","Mental illness","true",""
"","iat","696","j","142","171911","Bipolar Disorder","Mental illness","Mental illness","Physical illness","Mental illness","true",""
"","iat","644","j","144","172807","Schizophrenia","Mental illness","Mental illness","Physical illness","Mental illness","true",""
"","iat","672","f","146","173732","Arthritis","Physical illness","Physical illness","Physical illness","Mental illness","true",""
"","iat","822","f","148","174806","Meningitis","Physical illness","Physical illness","Physical illness","Mental illness","true",""
"","iat","2944","j","151","185481","Anorexia","Mental illness","Mental illness or Cishet","Physical illness or LGBTQ+","Mental illness or Cishet","true",""
"","iat","922","j","153","186657","Schizophrenia","Mental illness","Mental illness or Cishet","Physical illness or LGBTQ+","Mental illness or Cishet","true",""
"","iat","9797","f","155","196707","Bisexual","LGBTQ+","Physical illness or LGBTQ+","Physical illness or LGBTQ+","Mental illness or Cishet","true",""
"","iat","1621","f","157","198581","Leukemia","Physical illness","Physical illness or LGBTQ+","Physical illness or LGBTQ+","Mental illness or Cishet","true",""
"","iat","2480","f","159","201313","Epilepsy","Physical illness","Physical illness or LGBTQ+","Physical illness or LGBTQ+","Mental illness or Cishet","true",""
"","iat","1909","f","161","203474","Migraine","Physical illness","Physical illness or LGBTQ+","Physical illness or LGBTQ+","Mental illness or Cishet","true",""
"","iat","3015","j","163","206743","OCD","Mental illness","Mental illness or Cishet","Physical illness or LGBTQ+","Mental illness or Cishet","true",""
"","iat","1581","j","165","208579","PTSD","Mental illness","Mental illness or Cishet","Physical illness or LGBTQ+","Mental illness or Cishet","true",""
"","iat","1596","f","167","210429","Diversity","LGBTQ+","Physical illness or LGBTQ+","Physical illness or LGBTQ+","Mental illness or Cishet","true",""
"","iat","2037","f","169","212721","Arthritis","Physical illness","Physical illness or LGBTQ+","Physical illness or LGBTQ+","Mental illness or Cishet","true",""
"","iat","5845","j","171","218820","Biological","Cishet","Mental illness or Cishet","Physical illness or LGBTQ+","Mental illness or Cishet","true",""
"","iat","1927","j","173","221002","Heteronormative","Cishet","Mental illness or Cishet","Physical illness or LGBTQ+","Mental illness or Cishet","true",""
"","iat","2303","j","175","223559","Usual","Cishet","Mental illness or Cishet","Physical illness or LGBTQ+","Mental illness or Cishet","true",""
"","iat","1756","j","177","225569","Depression","Mental illness","Mental illness or Cishet","Physical illness or LGBTQ+","Mental illness or Cishet","true",""
"","iat","1524","f","179","227348","Pansexual","LGBTQ+","Physical illness or LGBTQ+","Physical illness or LGBTQ+","Mental illness or Cishet","true",""
"","iat","1211","j","181","228814","Bipolar Disorder","Mental illness","Mental illness or Cishet","Physical illness or LGBTQ+","Mental illness or Cishet","true",""
"","iat","1479","f","183","230546","Inclusivity","LGBTQ+","Physical illness or LGBTQ+","Physical illness or LGBTQ+","Mental illness or Cishet","true",""
"","iat","3605","f","185","234407","Asthma","Physical illness","Physical illness or LGBTQ+","Physical illness or LGBTQ+","Mental illness or Cishet","true",""
"","iat","2293","j","187","236953","Anxiety","Mental illness","Mental illness or Cishet","Physical illness or LGBTQ+","Mental illness or Cishet","true",""
"","iat","1238","f","189","238445","Influenza","Physical illness","Physical illness or LGBTQ+","Physical illness or LGBTQ+","Mental illness or Cishet","true",""
"","iat","1739","j","191","240439","Conformity","Cishet","Mental illness or Cishet","Physical illness or LGBTQ+","Mental illness or Cishet","true",""
"","iat","755","f","193","241449","Transgender","LGBTQ+","Physical illness or LGBTQ+","Physical illness or LGBTQ+","Mental illness or Cishet","true",""
"","iat","1340","f","195","243044","Queerness","LGBTQ+","Physical illness or LGBTQ+","Physical illness or LGBTQ+","Mental illness or Cishet","true",""
"","iat","923","j","197","244222","Psychosis","Mental illness","Mental illness or Cishet","Physical illness or LGBTQ+","Mental illness or Cishet","true",""
"","iat","1219","f","199","245695","Common Cold","Physical illness","Physical illness or LGBTQ+","Physical illness or LGBTQ+","Mental illness or Cishet","true",""
"","iat","1709","j","201","247657","Straight","Cishet","Mental illness or Cishet","Physical illness or LGBTQ+","Mental illness or Cishet","true",""
"","iat","1445","f","203","249356","Nonbinary","LGBTQ+","Physical illness or LGBTQ+","Physical illness or LGBTQ+","Mental illness or Cishet","true",""
"","iat","684","f","205","250294","Genderqueer","LGBTQ+","Physical illness or LGBTQ+","Physical illness or LGBTQ+","Mental illness or Cishet","true",""
"","iat","992","f","207","251541","Androgynous","LGBTQ+","Physical illness or LGBTQ+","Physical illness or LGBTQ+","Mental illness or Cishet","true",""
"","iat","1316","f","209","253111","Pneumonia","Physical illness","Physical illness or LGBTQ+","Physical illness or LGBTQ+","Mental illness or Cishet","true",""
"","iat","2103","j","211","255469","Heterosexual","Cishet","Mental illness or Cishet","Physical illness or LGBTQ+","Mental illness or Cishet","true",""
"","iat","1092","j","213","256815","Autism","Mental illness","Mental illness or Cishet","Physical illness or LGBTQ+","Mental illness or Cishet","true",""
"","iat","1228","f","215","258296","Diabetes","Physical illness","Physical illness or LGBTQ+","Physical illness or LGBTQ+","Mental illness or Cishet","true",""
"","iat","1252","j","217","259801","Cissexual","Cishet","Mental illness or Cishet","Physical illness or LGBTQ+","Mental illness or Cishet","true",""
"","iat","2221","j","219","262276","Hetero","Cishet","Mental illness or Cishet","Physical illness or LGBTQ+","Mental illness or Cishet","true",""
"","iat","1868","j","221","264397","Cisgendered","Cishet","Mental illness or Cishet","Physical illness or LGBTQ+","Mental illness or Cishet","true",""
"","iat","2714","f","224","276690","Psychosis","Mental illness","Mental illness or LGBTQ+","Mental illness or LGBTQ+","Physical illness or Cishet","true",""
"","iat","2510","j","226","279454","Heteronormative","Cishet","Physical illness or Cishet","Mental illness or LGBTQ+","Physical illness or Cishet","true",""
"","iat","1171","j","228","280879","Pneumonia","Physical illness","Physical illness or Cishet","Mental illness or LGBTQ+","Physical illness or Cishet","true",""
"","iat","853","j","230","281986","Epilepsy","Physical illness","Physical illness or Cishet","Mental illness or LGBTQ+","Physical illness or Cishet","true",""
"","iat","1972","f","232","284212","Bipolar Disorder","Mental illness","Mental illness or LGBTQ+","Mental illness or LGBTQ+","Physical illness or Cishet","true",""
"","iat","975","f","234","285441","Schizophrenia","Mental illness","Mental illness or LGBTQ+","Mental illness or LGBTQ+","Physical illness or Cishet","true",""
"","iat","918","f","236","286613","Depression","Mental illness","Mental illness or LGBTQ+","Mental illness or LGBTQ+","Physical illness or Cishet","true",""
"","iat","921","j","238","287788","Influenza","Physical illness","Physical illness or Cishet","Mental illness or LGBTQ+","Physical illness or Cishet","true",""
"","iat","1734","j","240","289777","Traditional","Cishet","Physical illness or Cishet","Mental illness or LGBTQ+","Physical illness or Cishet","true",""
"","iat","882","j","242","290913","Hetero","Cishet","Physical illness or Cishet","Mental illness or LGBTQ+","Physical illness or Cishet","true",""
"","iat","1034","j","244","292202","Cisgendered","Cishet","Physical illness or Cishet","Mental illness or LGBTQ+","Physical illness or Cishet","true",""
"","iat","1099","f","246","293555","Panic Disorder","Mental illness","Mental illness or LGBTQ+","Mental illness or LGBTQ+","Physical illness or Cishet","true",""
"","iat","2828","f","248","296636","Queerness","LGBTQ+","Mental illness or LGBTQ+","Mental illness or LGBTQ+","Physical illness or Cishet","true",""
"","iat","809","f","250","297700","Fluidity","LGBTQ+","Mental illness or LGBTQ+","Mental illness or LGBTQ+","Physical illness or Cishet","true",""
"","iat","1211","f","252","299164","Androgynous","LGBTQ+","Mental illness or LGBTQ+","Mental illness or LGBTQ+","Physical illness or Cishet","true",""
"","iat","855","f","254","300274","Anxiety","Mental illness","Mental illness or LGBTQ+","Mental illness or LGBTQ+","Physical illness or Cishet","true",""
"","iat","1386","f","256","301914","Diversity","LGBTQ+","Mental illness or LGBTQ+","Mental illness or LGBTQ+","Physical illness or Cishet","true",""
"","iat","861","f","258","303030","OCD","Mental illness","Mental illness or LGBTQ+","Mental illness or LGBTQ+","Physical illness or Cishet","true",""
"","iat","1839","j","260","305124","Conformity","Cishet","Physical illness or Cishet","Mental illness or LGBTQ+","Physical illness or Cishet","true",""
"","iat","1089","j","262","306466","Diabetes","Physical illness","Physical illness or Cishet","Mental illness or LGBTQ+","Physical illness or Cishet","true",""
"","iat","1033","j","264","307753","Usual","Cishet","Physical illness or Cishet","Mental illness or LGBTQ+","Physical illness or Cishet","true",""
"","iat","909","f","266","308916","Bisexual","LGBTQ+","Mental illness or LGBTQ+","Mental illness or LGBTQ+","Physical illness or Cishet","true",""
"","iat","855","f","268","310025","Anorexia","Mental illness","Mental illness or LGBTQ+","Mental illness or LGBTQ+","Physical illness or Cishet","true",""
"","iat","797","j","270","311077","Leukemia","Physical illness","Physical illness or Cishet","Mental illness or LGBTQ+","Physical illness or Cishet","true",""
"","iat","808","j","272","312139","Common Cold","Physical illness","Physical illness or Cishet","Mental illness or LGBTQ+","Physical illness or Cishet","true",""
"","iat","807","j","274","313200","Meningitis","Physical illness","Physical illness or Cishet","Mental illness or LGBTQ+","Physical illness or Cishet","true",""
"","iat","842","f","276","314295","Pansexual","LGBTQ+","Mental illness or LGBTQ+","Mental illness or LGBTQ+","Physical illness or Cishet","true",""
"","iat","836","j","278","315384","Biological","Cishet","Physical illness or Cishet","Mental illness or LGBTQ+","Physical illness or Cishet","true",""
"","iat","864","f","280","316503","Nonbinary","LGBTQ+","Mental illness or LGBTQ+","Mental illness or LGBTQ+","Physical illness or Cishet","true",""
"","iat","787","j","282","317545","Migraine","Physical illness","Physical illness or Cishet","Mental illness or LGBTQ+","Physical illness or Cishet","true",""
"","iat","864","f","284","318661","Autism","Mental illness","Mental illness or LGBTQ+","Mental illness or LGBTQ+","Physical illness or Cishet","true",""
"","iat","923","j","286","319838","Arthritis","Physical illness","Physical illness or Cishet","Mental illness or LGBTQ+","Physical illness or Cishet","true",""
"","iat","836","f","288","320928","Inclusivity","LGBTQ+","Mental illness or LGBTQ+","Mental illness or LGBTQ+","Physical illness or Cishet","true",""
"","iat","718","j","290","321900","Heterosexual","Cishet","Physical illness or Cishet","Mental illness or LGBTQ+","Physical illness or Cishet","true",""
"","iat","910","j","292","323064","Asthma","Physical illness","Physical illness or Cishet","Mental illness or LGBTQ+","Physical illness or Cishet","true",""
"","iat","1113","f","294","324431","Genderqueer","LGBTQ+","Mental illness or LGBTQ+","Mental illness or LGBTQ+","Physical illness or Cishet","true",""
"","Questionnaire","71726","{""question1"":2,""question2"":1,""question3"":1,""question4"":3,""question5"":2,""question6"":3,""question7"":3,""question8"":1,""question9"":1,""question10"":4,""question11"":0,""question12"":3,""question13"":4,""question14"":4,""question15"":1}","296","396421","","","","","","","[0,1,2,3,4,5,6,7,8,9,10,11,12,13,14]"
