"whichPrime","trialType","rt","response","trial_index","time_elapsed","word","expectedCategory","expectedCategoryAsDisplayed","leftCategory","rightCategory","correct","question_order"
"Queer","prime","60684"," ","2","78123","","","","","","",""
"","iat","1657","f","5","118385","Pansexual","LGBTQ+","LGBTQ+","LGBTQ+","Cishet","true",""
"","iat","811","f","7","119452","Queerness","LGBTQ+","LGBTQ+","LGBTQ+","Cishet","true",""
"","iat","1105","f","9","120814","Androgynous","LGBTQ+","LGBTQ+","LGBTQ+","Cishet","true",""
"","iat","907","j","11","121977","Heterosexual","Cishet","Cishet","LGBTQ+","Cishet","true",""
"","iat","6114","f","13","128346","Inclusivity","LGBTQ+","LGBTQ+","LGBTQ+","Cishet","true",""
"","iat","1239","j","15","129839","Heteronormative","Cishet","Cishet","LGBTQ+","Cishet","true",""
"","iat","2547","j","17","132641","Usual","Cishet","Cishet","LGBTQ+","Cishet","true",""
"","iat","2189","f","19","135087","Genderqueer","LGBTQ+","LGBTQ+","LGBTQ+","Cishet","true",""
"","iat","1156","j","21","136498","Cissexual","Cishet","Cishet","LGBTQ+","Cishet","true",""
"","iat","792","f","23","137545","Fluidity","LGBTQ+","LGBTQ+","LGBTQ+","Cishet","true",""
"","iat","666","f","25","138467","Pansexual","LGBTQ+","LGBTQ+","LGBTQ+","Cishet","true",""
"","iat","2981","j","27","141704","Biological","Cishet","Cishet","LGBTQ+","Cishet","true",""
"","iat","756","j","29","142715","Straight","Cishet","Cishet","LGBTQ+","Cishet","true",""
"","iat","1003","j","31","143974","Usual","Cishet","Cishet","LGBTQ+","Cishet","true",""
"","iat","782","f","33","145011","Transgender","LGBTQ+","LGBTQ+","LGBTQ+","Cishet","true",""
"","iat","827","j","35","146094","Cisgendered","Cishet","Cishet","LGBTQ+","Cishet","true",""
"","iat","601","f","37","146952","Bisexual","LGBTQ+","LGBTQ+","LGBTQ+","Cishet","true",""
"","iat","2361","j","39","149569","Traditional","Cishet","Cishet","LGBTQ+","Cishet","true",""
"","iat","1564","j","41","151388","Conformity","Cishet","Cishet","LGBTQ+","Cishet","true",""
"","iat","1376","j","43","153018","Straight","Cishet","Cishet","LGBTQ+","Cishet","true",""
"","iat","751","f","45","154026","Diversity","LGBTQ+","LGBTQ+","LGBTQ+","Cishet","true",""
"","iat","726","j","47","155008","Cisgendered","Cishet","Cishet","LGBTQ+","Cishet","true",""
"","iat","1093","f","49","156356","Nonbinary","LGBTQ+","LGBTQ+","LGBTQ+","Cishet","true",""
"","iat","687","f","51","157300","Diversity","LGBTQ+","LGBTQ+","LGBTQ+","Cishet","true",""
"","iat","569","f","53","158124","Bisexual","LGBTQ+","LGBTQ+","LGBTQ+","Cishet","true",""
"","iat","637","j","55","159017","Traditional","Cishet","Cishet","LGBTQ+","Cishet","true",""
"","iat","837","j","57","160110","Conformity","Cishet","Cishet","LGBTQ+","Cishet","true",""
"","iat","951","j","59","161317","Cissexual","Cishet","Cishet","LGBTQ+","Cishet","true",""
"","iat","1167","f","61","162739","Genderqueer","LGBTQ+","LGBTQ+","LGBTQ+","Cishet","true",""
"","iat","838","j","63","163833","Heteronormative","Cishet","Cishet","LGBTQ+","Cishet","true",""
"","iat","1306","j","65","165394","Biological","Cishet","Cishet","LGBTQ+","Cishet","true",""
"","iat","1395","f","67","167045","Inclusivity","LGBTQ+","LGBTQ+","LGBTQ+","Cishet","true",""
"","iat","1454","f","69","168755","Queerness","LGBTQ+","LGBTQ+","LGBTQ+","Cishet","true",""
"","iat","713","f","71","169724","Transgender","LGBTQ+","LGBTQ+","LGBTQ+","Cishet","true",""
"","iat","821","f","73","170801","Nonbinary","LGBTQ+","LGBTQ+","LGBTQ+","Cishet","true",""
"","iat","751","j","75","171807","Hetero","Cishet","Cishet","LGBTQ+","Cishet","true",""
"","iat","4196","j","78","184779","Epilepsy","Physical illness","Physical illness","Mental illness","Physical illness","true",""
"","iat","2461","j","80","187495","Common Cold","Physical illness","Physical illness","Mental illness","Physical illness","true",""
"","iat","1139","f","82","188890","Schizophrenia","Mental illness","Mental illness","Mental illness","Physical illness","true",""
"","iat","782","j","84","189927","Influenza","Physical illness","Physical illness","Mental illness","Physical illness","true",""
"","iat","607","f","86","190790","Anxiety","Mental illness","Mental illness","Mental illness","Physical illness","true",""
"","iat","874","f","88","191919","Panic Disorder","Mental illness","Mental illness","Mental illness","Physical illness","true",""
"","iat","1867","j","90","194041","Leukemia","Physical illness","Physical illness","Mental illness","Physical illness","true",""
"","iat","5546","f","92","199842","Bipolar Disorder","Mental illness","Mental illness","Mental illness","Physical illness","true",""
"","iat","724","j","94","200822","Epilepsy","Physical illness","Physical illness","Mental illness","Physical illness","true",""
"","iat","1513","f","96","202590","Panic Disorder","Mental illness","Mental illness","Mental illness","Physical illness","true",""
"","iat","833","j","98","203679","Common Cold","Physical illness","Physical illness","Mental illness","Physical illness","true",""
"","iat","1107","f","100","205040","PTSD","Mental illness","Mental illness","Mental illness","Physical illness","true",""
"","iat","3095","f","102","208391","Psychosis","Mental illness","Mental illness","Mental illness","Physical illness","true",""
"","iat","868","f","104","209514","OCD","Mental illness","Mental illness","Mental illness","Physical illness","true",""
"","iat","1197","j","106","210966","Pneumonia","Physical illness","Physical illness","Mental illness","Physical illness","true",""
"","iat","765","j","108","211987","Arthritis","Physical illness","Physical illness","Mental illness","Physical illness","true",""
"","iat","607","j","110","212850","Arthritis","Physical illness","Physical illness","Mental illness","Physical illness","true",""
"","iat","769","j","112","213874","Leukemia","Physical illness","Physical illness","Mental illness","Physical illness","true",""
"","iat","755","f","114","214885","Autism","Mental illness","Mental illness","Mental illness","Physical illness","true",""
"","iat","678","f","116","215819","Depression","Mental illness","Mental illness","Mental illness","Physical illness","true",""
"","iat","758","f","118","216833","Migraine","Physical illness","Physical illness","Mental illness","Physical illness","false",""
"","iat","2730","j","120","219818","Asthma","Physical illness","Physical illness","Mental illness","Physical illness","true",""
"","iat","1015","j","122","221089","Meningitis","Physical illness","Physical illness","Mental illness","Physical illness","true",""
"","iat","4654","f","124","225999","Psychosis","Mental illness","Mental illness","Mental illness","Physical illness","true",""
"","iat","628","j","126","226881","Pneumonia","Physical illness","Physical illness","Mental illness","Physical illness","true",""
"","iat","575","j","128","227711","Influenza","Physical illness","Physical illness","Mental illness","Physical illness","true",""
"","iat","687","f","130","228654","Anxiety","Mental illness","Mental illness","Mental illness","Physical illness","true",""
"","iat","1211","j","132","230120","Diabetes","Physical illness","Physical illness","Mental illness","Physical illness","true",""
"","iat","861","f","134","231237","Asthma","Physical illness","Physical illness","Mental illness","Physical illness","false",""
"","iat","1643","j","136","233136","OCD","Mental illness","Mental illness","Mental illness","Physical illness","false",""
"","iat","2488","j","138","235880","Schizophrenia","Mental illness","Mental illness","Mental illness","Physical illness","false",""
"","iat","1246","f","140","237382","Autism","Mental illness","Mental illness","Mental illness","Physical illness","true",""
"","iat","1412","f","142","239049","Anorexia","Mental illness","Mental illness","Mental illness","Physical illness","true",""
"","iat","967","j","144","240271","PTSD","Mental illness","Mental illness","Mental illness","Physical illness","false",""
"","iat","1570","f","146","242097","Anorexia","Mental illness","Mental illness","Mental illness","Physical illness","true",""
"","iat","670","j","148","243023","Diabetes","Physical illness","Physical illness","Mental illness","Physical illness","true",""
"","iat","4633","j","151","273876","Pansexual","LGBTQ+","Mental illness or LGBTQ+","Physical illness or Cishet","Mental illness or LGBTQ+","true",""
"","iat","1755","f","153","275887","Heteronormative","Cishet","Physical illness or Cishet","Physical illness or Cishet","Mental illness or LGBTQ+","true",""
"","iat","1232","j","155","277374","Diversity","LGBTQ+","Mental illness or LGBTQ+","Physical illness or Cishet","Mental illness or LGBTQ+","true",""
"","iat","2300","f","157","279929","Cissexual","Cishet","Physical illness or Cishet","Physical illness or Cishet","Mental illness or LGBTQ+","true",""
"","iat","3085","j","159","283270","Bipolar Disorder","Mental illness","Mental illness or LGBTQ+","Physical illness or Cishet","Mental illness or LGBTQ+","true",""
"","iat","1038","j","161","284563","Queerness","LGBTQ+","Mental illness or LGBTQ+","Physical illness or Cishet","Mental illness or LGBTQ+","true",""
"","iat","785","f","163","285604","Straight","Cishet","Physical illness or Cishet","Physical illness or Cishet","Mental illness or LGBTQ+","true",""
"","iat","1140","j","165","286998","PTSD","Mental illness","Mental illness or LGBTQ+","Physical illness or Cishet","Mental illness or LGBTQ+","true",""
"","iat","966","j","167","288220","Inclusivity","LGBTQ+","Mental illness or LGBTQ+","Physical illness or Cishet","Mental illness or LGBTQ+","true",""
"","iat","1014","f","169","289489","Diabetes","Physical illness","Physical illness or Cishet","Physical illness or Cishet","Mental illness or LGBTQ+","true",""
"","iat","1069","f","171","290814","Asthma","Physical illness","Physical illness or Cishet","Physical illness or Cishet","Mental illness or LGBTQ+","true",""
"","iat","816","j","173","291885","Autism","Mental illness","Mental illness or LGBTQ+","Physical illness or Cishet","Mental illness or LGBTQ+","true",""
"","iat","2253","f","175","294392","Pneumonia","Physical illness","Physical illness or Cishet","Physical illness or Cishet","Mental illness or LGBTQ+","true",""
"","iat","2566","f","177","297213","Hetero","Cishet","Physical illness or Cishet","Physical illness or Cishet","Mental illness or LGBTQ+","true",""
"","iat","1538","f","179","299006","Usual","Cishet","Physical illness or Cishet","Physical illness or Cishet","Mental illness or LGBTQ+","true",""
"","iat","975","f","181","300237","Cisgendered","Cishet","Physical illness or Cishet","Physical illness or Cishet","Mental illness or LGBTQ+","true",""
"","iat","792","j","183","301284","Depression","Mental illness","Mental illness or LGBTQ+","Physical illness or Cishet","Mental illness or LGBTQ+","true",""
"","iat","1311","f","185","302850","Traditional","Cishet","Physical illness or Cishet","Physical illness or Cishet","Mental illness or LGBTQ+","true",""
"","iat","743","f","187","303849","Leukemia","Physical illness","Physical illness or Cishet","Physical illness or Cishet","Mental illness or LGBTQ+","true",""
"","iat","669","f","189","304773","Heterosexual","Cishet","Physical illness or Cishet","Physical illness or Cishet","Mental illness or LGBTQ+","true",""
"","iat","1103","j","191","306132","Nonbinary","LGBTQ+","Mental illness or LGBTQ+","Physical illness or Cishet","Mental illness or LGBTQ+","true",""
"","iat","1152","j","193","307539","Anxiety","Mental illness","Mental illness or LGBTQ+","Physical illness or Cishet","Mental illness or LGBTQ+","true",""
"","iat","1006","j","195","308801","OCD","Mental illness","Mental illness or LGBTQ+","Physical illness or Cishet","Mental illness or LGBTQ+","true",""
"","iat","925","j","197","309982","Transgender","LGBTQ+","Mental illness or LGBTQ+","Physical illness or Cishet","Mental illness or LGBTQ+","true",""
"","iat","650","f","199","310887","Common Cold","Physical illness","Physical illness or Cishet","Physical illness or Cishet","Mental illness or LGBTQ+","true",""
"","iat","889","f","201","312031","Arthritis","Physical illness","Physical illness or Cishet","Physical illness or Cishet","Mental illness or LGBTQ+","true",""
"","iat","1223","f","203","313510","Epilepsy","Physical illness","Physical illness or Cishet","Physical illness or Cishet","Mental illness or LGBTQ+","true",""
"","iat","2545","f","205","316309","Schizophrenia","Mental illness","Mental illness or LGBTQ+","Physical illness or Cishet","Mental illness or LGBTQ+","false",""
"","iat","825","f","207","317390","Influenza","Physical illness","Physical illness or Cishet","Physical illness or Cishet","Mental illness or LGBTQ+","true",""
"","iat","686","j","209","318332","Panic Disorder","Mental illness","Mental illness or LGBTQ+","Physical illness or Cishet","Mental illness or LGBTQ+","true",""
"","iat","756","j","211","319343","Fluidity","LGBTQ+","Mental illness or LGBTQ+","Physical illness or Cishet","Mental illness or LGBTQ+","true",""
"","iat","1505","f","213","321103","Meningitis","Physical illness","Physical illness or Cishet","Physical illness or Cishet","Mental illness or LGBTQ+","true",""
"","iat","846","f","215","322205","Biological","Cishet","Physical illness or Cishet","Physical illness or Cishet","Mental illness or LGBTQ+","true",""
"","iat","1273","j","217","323732","Bisexual","LGBTQ+","Mental illness or LGBTQ+","Physical illness or Cishet","Mental illness or LGBTQ+","true",""
"","iat","1434","j","219","325420","Genderqueer","LGBTQ+","Mental illness or LGBTQ+","Physical illness or Cishet","Mental illness or LGBTQ+","true",""
"","iat","4424","j","221","330100","Psychosis","Mental illness","Mental illness or LGBTQ+","Physical illness or Cishet","Mental illness or LGBTQ+","true",""
"","iat","1131","f","224","363576","Heteronormative","Cishet","Mental illness or Cishet","Mental illness or Cishet","Physical illness or LGBTQ+","true",""
"","iat","759","j","226","364591","Common Cold","Physical illness","Physical illness or LGBTQ+","Mental illness or Cishet","Physical illness or LGBTQ+","true",""
"","iat","967","j","228","365813","Androgynous","LGBTQ+","Physical illness or LGBTQ+","Mental illness or Cishet","Physical illness or LGBTQ+","true",""
"","iat","869","j","230","366937","Schizophrenia","Mental illness","Mental illness or Cishet","Mental illness or Cishet","Physical illness or LGBTQ+","false",""
"","iat","949","j","232","368142","Inclusivity","LGBTQ+","Physical illness or LGBTQ+","Mental illness or Cishet","Physical illness or LGBTQ+","true",""
"","iat","841","f","234","369237","Straight","Cishet","Mental illness or Cishet","Mental illness or Cishet","Physical illness or LGBTQ+","true",""
"","iat","883","j","236","370376","Bipolar Disorder","Mental illness","Mental illness or Cishet","Mental illness or Cishet","Physical illness or LGBTQ+","false",""
"","iat","2614","f","238","373244","Depression","Mental illness","Mental illness or Cishet","Mental illness or Cishet","Physical illness or LGBTQ+","true",""
"","iat","820","j","240","374320","Diversity","LGBTQ+","Physical illness or LGBTQ+","Mental illness or Cishet","Physical illness or LGBTQ+","true",""
"","iat","1101","f","242","375676","Usual","Cishet","Mental illness or Cishet","Mental illness or Cishet","Physical illness or LGBTQ+","true",""
"","iat","749","j","244","376681","Queerness","LGBTQ+","Physical illness or LGBTQ+","Mental illness or Cishet","Physical illness or LGBTQ+","true",""
"","iat","626","j","246","377562","Bisexual","LGBTQ+","Physical illness or LGBTQ+","Mental illness or Cishet","Physical illness or LGBTQ+","true",""
"","iat","943","f","248","378760","Hetero","Cishet","Mental illness or Cishet","Mental illness or Cishet","Physical illness or LGBTQ+","true",""
"","iat","664","j","250","379680","Genderqueer","LGBTQ+","Physical illness or LGBTQ+","Mental illness or Cishet","Physical illness or LGBTQ+","true",""
"","iat","884","f","252","380819","Cisgendered","Cishet","Mental illness or Cishet","Mental illness or Cishet","Physical illness or LGBTQ+","true",""
"","iat","1322","f","254","382396","PTSD","Mental illness","Mental illness or Cishet","Mental illness or Cishet","Physical illness or LGBTQ+","true",""
"","iat","1057","f","256","383709","Psychosis","Mental illness","Mental illness or Cishet","Mental illness or Cishet","Physical illness or LGBTQ+","true",""
"","iat","796","j","258","384759","Fluidity","LGBTQ+","Physical illness or LGBTQ+","Mental illness or Cishet","Physical illness or LGBTQ+","true",""
"","iat","805","f","260","385818","Biological","Cishet","Mental illness or Cishet","Mental illness or Cishet","Physical illness or LGBTQ+","true",""
"","iat","749","f","262","386822","Arthritis","Physical illness","Physical illness or LGBTQ+","Mental illness or Cishet","Physical illness or LGBTQ+","false",""
"","iat","3804","f","264","390882","Heterosexual","Cishet","Mental illness or Cishet","Mental illness or Cishet","Physical illness or LGBTQ+","true",""
"","iat","1548","f","266","392686","OCD","Mental illness","Mental illness or Cishet","Mental illness or Cishet","Physical illness or LGBTQ+","true",""
"","iat","2272","f","268","395214","Panic Disorder","Mental illness","Mental illness or Cishet","Mental illness or Cishet","Physical illness or LGBTQ+","true",""
"","iat","1152","j","270","396620","Diabetes","Physical illness","Physical illness or LGBTQ+","Mental illness or Cishet","Physical illness or LGBTQ+","true",""
"","iat","1241","j","272","398116","Migraine","Physical illness","Physical illness or LGBTQ+","Mental illness or Cishet","Physical illness or LGBTQ+","true",""
"","iat","1140","f","274","399511","Meningitis","Physical illness","Physical illness or LGBTQ+","Mental illness or Cishet","Physical illness or LGBTQ+","false",""
"","iat","3544","j","276","403311","Influenza","Physical illness","Physical illness or LGBTQ+","Mental illness or Cishet","Physical illness or LGBTQ+","true",""
"","iat","1306","j","278","404872","Leukemia","Physical illness","Physical illness or LGBTQ+","Mental illness or Cishet","Physical illness or LGBTQ+","true",""
"","iat","1003","f","280","406131","Conformity","Cishet","Mental illness or Cishet","Mental illness or Cishet","Physical illness or LGBTQ+","true",""
"","iat","777","j","282","407163","Asthma","Physical illness","Physical illness or LGBTQ+","Mental illness or Cishet","Physical illness or LGBTQ+","true",""
"","iat","2058","f","284","409475","Autism","Mental illness","Mental illness or Cishet","Mental illness or Cishet","Physical illness or LGBTQ+","true",""
"","iat","1373","j","286","411103","Nonbinary","LGBTQ+","Physical illness or LGBTQ+","Mental illness or Cishet","Physical illness or LGBTQ+","true",""
"","iat","750","f","288","412108","Cissexual","Cishet","Mental illness or Cishet","Mental illness or Cishet","Physical illness or LGBTQ+","true",""
"","iat","1353","f","290","413716","Anorexia","Mental illness","Mental illness or Cishet","Mental illness or Cishet","Physical illness or LGBTQ+","true",""
"","iat","3078","j","292","417049","Transgender","LGBTQ+","Physical illness or LGBTQ+","Mental illness or Cishet","Physical illness or LGBTQ+","true",""
"","iat","738","j","294","418043","Pansexual","LGBTQ+","Physical illness or LGBTQ+","Mental illness or Cishet","Physical illness or LGBTQ+","true",""
"","Questionnaire","66289","{""question1"":3,""question2"":0,""question3"":0,""question4"":0,""question5"":4,""question6"":4,""question7"":4,""question8"":0,""question9"":0,""question10"":4,""question11"":0,""question12"":4,""question13"":4,""question14"":4,""question15"":0}","296","484595","","","","","","","[0,1,2,3,4,5,6,7,8,9,10,11,12,13,14]"
