"whichPrime","trialType","rt","response","trial_index","time_elapsed","word","expectedCategory","expectedCategoryAsDisplayed","leftCategory","rightCategory","correct","question_order"
"Queer","prime","21936"," ","2","35749","","","","","","",""
"","iat","2529","f","5","52363","Asthma","Physical illness","Physical illness","Physical illness","Mental illness","true",""
"","iat","1336","j","7","53955","Depression","Mental illness","Mental illness","Physical illness","Mental illness","true",""
"","iat","1070","f","9","55281","Meningitis","Physical illness","Physical illness","Physical illness","Mental illness","true",""
"","iat","983","j","11","56520","Depression","Mental illness","Mental illness","Physical illness","Mental illness","true",""
"","iat","10294","f","13","67071","Autism","Mental illness","Mental illness","Physical illness","Mental illness","false",""
"","iat","2730","j","15","70056","Schizophrenia","Mental illness","Mental illness","Physical illness","Mental illness","true",""
"","iat","1017","j","17","71328","Psychosis","Mental illness","Mental illness","Physical illness","Mental illness","true",""
"","iat","1395","f","19","72979","Epilepsy","Physical illness","Physical illness","Physical illness","Mental illness","true",""
"","iat","705","f","21","73942","Meningitis","Physical illness","Physical illness","Physical illness","Mental illness","true",""
"","iat","818","j","23","75017","Psychosis","Mental illness","Mental illness","Physical illness","Mental illness","true",""
"","iat","1111","f","25","76383","Influenza","Physical illness","Physical illness","Physical illness","Mental illness","true",""
"","iat","2709","j","27","79348","Autism","Mental illness","Mental illness","Physical illness","Mental illness","true",""
"","iat","1106","j","29","80709","Panic Disorder","Mental illness","Mental illness","Physical illness","Mental illness","true",""
"","iat","747","f","31","81711","Pneumonia","Physical illness","Physical illness","Physical illness","Mental illness","true",""
"","iat","1271","j","33","83237","OCD","Mental illness","Mental illness","Physical illness","Mental illness","true",""
"","iat","1217","f","35","84710","Migraine","Physical illness","Physical illness","Physical illness","Mental illness","true",""
"","iat","1229","f","37","86195","Asthma","Physical illness","Physical illness","Physical illness","Mental illness","true",""
"","iat","1614","j","39","88064","Anorexia","Mental illness","Mental illness","Physical illness","Mental illness","true",""
"","iat","923","j","41","89242","Bipolar Disorder","Mental illness","Mental illness","Physical illness","Mental illness","true",""
"","iat","834","j","43","90331","Panic Disorder","Mental illness","Mental illness","Physical illness","Mental illness","true",""
"","iat","781","j","45","91368","OCD","Mental illness","Mental illness","Physical illness","Mental illness","true",""
"","iat","1293","j","47","92916","PTSD","Mental illness","Mental illness","Physical illness","Mental illness","true",""
"","iat","1119","f","49","94290","Leukemia","Physical illness","Physical illness","Physical illness","Mental illness","true",""
"","iat","789","j","51","95334","Schizophrenia","Mental illness","Mental illness","Physical illness","Mental illness","true",""
"","iat","811","f","53","96399","Common Cold","Physical illness","Physical illness","Physical illness","Mental illness","true",""
"","iat","734","f","55","97391","Common Cold","Physical illness","Physical illness","Physical illness","Mental illness","true",""
"","iat","995","j","57","98642","Anxiety","Mental illness","Mental illness","Physical illness","Mental illness","true",""
"","iat","949","f","59","99847","Diabetes","Physical illness","Physical illness","Physical illness","Mental illness","true",""
"","iat","1732","f","61","101835","Arthritis","Physical illness","Physical illness","Physical illness","Mental illness","true",""
"","iat","1251","f","63","103341","Epilepsy","Physical illness","Physical illness","Physical illness","Mental illness","true",""
"","iat","799","f","65","104396","Diabetes","Physical illness","Physical illness","Physical illness","Mental illness","true",""
"","iat","638","f","67","105290","Leukemia","Physical illness","Physical illness","Physical illness","Mental illness","true",""
"","iat","825","j","69","106370","Anxiety","Mental illness","Mental illness","Physical illness","Mental illness","true",""
"","iat","888","j","71","107513","Anorexia","Mental illness","Mental illness","Physical illness","Mental illness","true",""
"","iat","945","f","73","108715","Migraine","Physical illness","Physical illness","Physical illness","Mental illness","true",""
"","iat","710","f","75","109681","Pneumonia","Physical illness","Physical illness","Physical illness","Mental illness","true",""
"","iat","4890","j","78","121328","Queerness","LGBTQ+","LGBTQ+","Cishet","LGBTQ+","true",""
"","iat","795","j","80","122380","Pansexual","LGBTQ+","LGBTQ+","Cishet","LGBTQ+","true",""
"","iat","1017","f","82","123654","Usual","Cishet","Cishet","Cishet","LGBTQ+","true",""
"","iat","937","j","84","124847","Androgynous","LGBTQ+","LGBTQ+","Cishet","LGBTQ+","true",""
"","iat","1072","f","86","126175","Conformity","Cishet","Cishet","Cishet","LGBTQ+","true",""
"","iat","1826","j","88","128256","Inclusivity","LGBTQ+","LGBTQ+","Cishet","LGBTQ+","true",""
"","iat","1044","f","90","129556","Biological","Cishet","Cishet","Cishet","LGBTQ+","true",""
"","iat","976","f","92","130787","Hetero","Cishet","Cishet","Cishet","LGBTQ+","true",""
"","iat","871","j","94","131913","Nonbinary","LGBTQ+","LGBTQ+","Cishet","LGBTQ+","true",""
"","iat","1946","f","96","134114","Hetero","Cishet","Cishet","Cishet","LGBTQ+","true",""
"","iat","5569","j","98","139937","Cissexual","Cishet","Cishet","Cishet","LGBTQ+","false",""
"","iat","1783","j","100","141976","Transgender","LGBTQ+","LGBTQ+","Cishet","LGBTQ+","true",""
"","iat","816","j","102","143048","Genderqueer","LGBTQ+","LGBTQ+","Cishet","LGBTQ+","true",""
"","iat","688","j","104","143991","Genderqueer","LGBTQ+","LGBTQ+","Cishet","LGBTQ+","true",""
"","iat","4841","j","106","149086","Heterosexual","Cishet","Cishet","Cishet","LGBTQ+","false",""
"","iat","637","j","108","149979","Androgynous","LGBTQ+","LGBTQ+","Cishet","LGBTQ+","true",""
"","iat","773","f","110","151007","Conformity","Cishet","Cishet","Cishet","LGBTQ+","true",""
"","iat","555","j","112","151819","Queerness","LGBTQ+","LGBTQ+","Cishet","LGBTQ+","true",""
"","iat","699","j","114","152773","Inclusivity","LGBTQ+","LGBTQ+","Cishet","LGBTQ+","true",""
"","iat","718","j","116","153746","Bisexual","LGBTQ+","LGBTQ+","Cishet","LGBTQ+","true",""
"","iat","823","f","118","154826","Heterosexual","Cishet","Cishet","Cishet","LGBTQ+","true",""
"","iat","999","f","120","156081","Cisgendered","Cishet","Cishet","Cishet","LGBTQ+","true",""
"","iat","1857","j","122","158194","Diversity","LGBTQ+","LGBTQ+","Cishet","LGBTQ+","true",""
"","iat","664","f","124","159113","Cissexual","Cishet","Cishet","Cishet","LGBTQ+","true",""
"","iat","741","j","126","160109","Pansexual","LGBTQ+","LGBTQ+","Cishet","LGBTQ+","true",""
"","iat","891","f","128","161257","Heteronormative","Cishet","Cishet","Cishet","LGBTQ+","true",""
"","iat","795","j","130","162308","Fluidity","LGBTQ+","LGBTQ+","Cishet","LGBTQ+","true",""
"","iat","925","f","132","163489","Straight","Cishet","Cishet","Cishet","LGBTQ+","true",""
"","iat","792","f","134","164537","Heteronormative","Cishet","Cishet","Cishet","LGBTQ+","true",""
"","iat","790","f","136","165583","Traditional","Cishet","Cishet","Cishet","LGBTQ+","true",""
"","iat","801","j","138","166639","Nonbinary","LGBTQ+","LGBTQ+","Cishet","LGBTQ+","true",""
"","iat","743","j","140","167637","Transgender","LGBTQ+","LGBTQ+","Cishet","LGBTQ+","true",""
"","iat","722","f","142","168615","Biological","Cishet","Cishet","Cishet","LGBTQ+","true",""
"","iat","685","j","144","169554","Fluidity","LGBTQ+","LGBTQ+","Cishet","LGBTQ+","true",""
"","iat","667","f","146","170478","Traditional","Cishet","Cishet","Cishet","LGBTQ+","true",""
"","iat","682","f","148","171414","Cisgendered","Cishet","Cishet","Cishet","LGBTQ+","true",""
"","iat","2645","f","151","178884","Cisgendered","Cishet","Physical illness or Cishet","Physical illness or Cishet","Mental illness or LGBTQ+","true",""
"","iat","647","f","153","179786","Usual","Cishet","Physical illness or Cishet","Physical illness or Cishet","Mental illness or LGBTQ+","true",""
"","iat","908","j","155","180950","Genderqueer","LGBTQ+","Mental illness or LGBTQ+","Physical illness or Cishet","Mental illness or LGBTQ+","true",""
"","iat","4156","j","157","185361","Autism","Mental illness","Mental illness or LGBTQ+","Physical illness or Cishet","Mental illness or LGBTQ+","true",""
"","iat","696","f","159","186313","Asthma","Physical illness","Physical illness or Cishet","Physical illness or Cishet","Mental illness or LGBTQ+","true",""
"","iat","903","j","161","187471","Anorexia","Mental illness","Mental illness or LGBTQ+","Physical illness or Cishet","Mental illness or LGBTQ+","true",""
"","iat","2195","f","163","189922","Hetero","Cishet","Physical illness or Cishet","Physical illness or Cishet","Mental illness or LGBTQ+","true",""
"","iat","712","f","165","190889","Migraine","Physical illness","Physical illness or Cishet","Physical illness or Cishet","Mental illness or LGBTQ+","true",""
"","iat","623","f","167","191767","Transgender","LGBTQ+","Mental illness or LGBTQ+","Physical illness or Cishet","Mental illness or LGBTQ+","false",""
"","iat","815","f","169","192838","Common Cold","Physical illness","Physical illness or Cishet","Physical illness or Cishet","Mental illness or LGBTQ+","true",""
"","iat","685","j","171","193779","Fluidity","LGBTQ+","Mental illness or LGBTQ+","Physical illness or Cishet","Mental illness or LGBTQ+","true",""
"","iat","1047","f","173","195082","Arthritis","Physical illness","Physical illness or Cishet","Physical illness or Cishet","Mental illness or LGBTQ+","true",""
"","iat","682","f","175","196020","Heteronormative","Cishet","Physical illness or Cishet","Physical illness or Cishet","Mental illness or LGBTQ+","true",""
"","iat","689","j","177","196965","Panic Disorder","Mental illness","Mental illness or LGBTQ+","Physical illness or Cishet","Mental illness or LGBTQ+","true",""
"","iat","674","f","179","197894","Pneumonia","Physical illness","Physical illness or Cishet","Physical illness or Cishet","Mental illness or LGBTQ+","true",""
"","iat","1017","j","181","199167","Diversity","LGBTQ+","Mental illness or LGBTQ+","Physical illness or Cishet","Mental illness or LGBTQ+","true",""
"","iat","848","j","183","200270","Schizophrenia","Mental illness","Mental illness or LGBTQ+","Physical illness or Cishet","Mental illness or LGBTQ+","true",""
"","iat","634","j","185","201158","Queerness","LGBTQ+","Mental illness or LGBTQ+","Physical illness or Cishet","Mental illness or LGBTQ+","true",""
"","iat","614","f","187","202028","Biological","Cishet","Physical illness or Cishet","Physical illness or Cishet","Mental illness or LGBTQ+","true",""
"","iat","737","j","189","203021","Psychosis","Mental illness","Mental illness or LGBTQ+","Physical illness or Cishet","Mental illness or LGBTQ+","true",""
"","iat","795","f","191","204071","Cissexual","Cishet","Physical illness or Cishet","Physical illness or Cishet","Mental illness or LGBTQ+","true",""
"","iat","701","f","193","205026","Heterosexual","Cishet","Physical illness or Cishet","Physical illness or Cishet","Mental illness or LGBTQ+","true",""
"","iat","659","j","195","205940","Androgynous","LGBTQ+","Mental illness or LGBTQ+","Physical illness or Cishet","Mental illness or LGBTQ+","true",""
"","iat","1641","f","197","207836","Conformity","Cishet","Physical illness or Cishet","Physical illness or Cishet","Mental illness or LGBTQ+","true",""
"","iat","645","f","199","208737","Leukemia","Physical illness","Physical illness or Cishet","Physical illness or Cishet","Mental illness or LGBTQ+","true",""
"","iat","1618","j","201","210610","Depression","Mental illness","Mental illness or LGBTQ+","Physical illness or Cishet","Mental illness or LGBTQ+","true",""
"","iat","646","j","203","211511","Bipolar Disorder","Mental illness","Mental illness or LGBTQ+","Physical illness or Cishet","Mental illness or LGBTQ+","true",""
"","iat","708","f","205","212474","Influenza","Physical illness","Physical illness or Cishet","Physical illness or Cishet","Mental illness or LGBTQ+","true",""
"","iat","632","f","207","213361","Straight","Cishet","Physical illness or Cishet","Physical illness or Cishet","Mental illness or LGBTQ+","true",""
"","iat","700","j","209","214316","Pansexual","LGBTQ+","Mental illness or LGBTQ+","Physical illness or Cishet","Mental illness or LGBTQ+","true",""
"","iat","756","f","211","215327","Traditional","Cishet","Physical illness or Cishet","Physical illness or Cishet","Mental illness or LGBTQ+","true",""
"","iat","698","j","213","216280","Bisexual","LGBTQ+","Mental illness or LGBTQ+","Physical illness or Cishet","Mental illness or LGBTQ+","true",""
"","iat","616","f","215","217151","Epilepsy","Physical illness","Physical illness or Cishet","Physical illness or Cishet","Mental illness or LGBTQ+","true",""
"","iat","795","j","217","218201","Nonbinary","LGBTQ+","Mental illness or LGBTQ+","Physical illness or Cishet","Mental illness or LGBTQ+","true",""
"","iat","704","j","219","219161","OCD","Mental illness","Mental illness or LGBTQ+","Physical illness or Cishet","Mental illness or LGBTQ+","true",""
"","iat","705","j","221","220120","Anxiety","Mental illness","Mental illness or LGBTQ+","Physical illness or Cishet","Mental illness or LGBTQ+","true",""
"","iat","4210","j","224","231220","Pneumonia","Physical illness","Physical illness or LGBTQ+","Mental illness or Cishet","Physical illness or LGBTQ+","true",""
"","iat","1746","f","226","233222","Heteronormative","Cishet","Mental illness or Cishet","Mental illness or Cishet","Physical illness or LGBTQ+","true",""
"","iat","1639","f","228","235116","Psychosis","Mental illness","Mental illness or Cishet","Mental illness or Cishet","Physical illness or LGBTQ+","true",""
"","iat","1095","f","230","236466","Depression","Mental illness","Mental illness or Cishet","Mental illness or Cishet","Physical illness or LGBTQ+","true",""
"","iat","2339","j","232","239060","Epilepsy","Physical illness","Physical illness or LGBTQ+","Mental illness or Cishet","Physical illness or LGBTQ+","true",""
"","iat","1500","j","234","240817","Bisexual","LGBTQ+","Physical illness or LGBTQ+","Mental illness or Cishet","Physical illness or LGBTQ+","true",""
"","iat","1732","j","236","242804","Arthritis","Physical illness","Physical illness or LGBTQ+","Mental illness or Cishet","Physical illness or LGBTQ+","true",""
"","iat","1182","j","238","244242","Fluidity","LGBTQ+","Physical illness or LGBTQ+","Mental illness or Cishet","Physical illness or LGBTQ+","true",""
"","iat","970","j","240","245467","Diversity","LGBTQ+","Physical illness or LGBTQ+","Mental illness or Cishet","Physical illness or LGBTQ+","true",""
"","iat","1913","j","242","247636","Asthma","Physical illness","Physical illness or LGBTQ+","Mental illness or Cishet","Physical illness or LGBTQ+","true",""
"","iat","1151","j","244","249044","Genderqueer","LGBTQ+","Physical illness or LGBTQ+","Mental illness or Cishet","Physical illness or LGBTQ+","true",""
"","iat","1102","j","246","250399","Diabetes","Physical illness","Physical illness or LGBTQ+","Mental illness or Cishet","Physical illness or LGBTQ+","true",""
"","iat","1389","f","248","252044","Panic Disorder","Mental illness","Mental illness or Cishet","Mental illness or Cishet","Physical illness or LGBTQ+","true",""
"","iat","1181","j","250","253480","Pansexual","LGBTQ+","Physical illness or LGBTQ+","Mental illness or Cishet","Physical illness or LGBTQ+","true",""
"","iat","1065","j","252","254799","Nonbinary","LGBTQ+","Physical illness or LGBTQ+","Mental illness or Cishet","Physical illness or LGBTQ+","true",""
"","iat","1016","f","254","256071","Cissexual","Cishet","Mental illness or Cishet","Mental illness or Cishet","Physical illness or LGBTQ+","true",""
"","iat","1147","j","256","257475","Migraine","Physical illness","Physical illness or LGBTQ+","Mental illness or Cishet","Physical illness or LGBTQ+","true",""
"","iat","1261","f","258","258991","Hetero","Cishet","Mental illness or Cishet","Mental illness or Cishet","Physical illness or LGBTQ+","true",""
"","iat","864","j","260","260111","Common Cold","Physical illness","Physical illness or LGBTQ+","Mental illness or Cishet","Physical illness or LGBTQ+","true",""
"","iat","1093","f","262","261459","Heterosexual","Cishet","Mental illness or Cishet","Mental illness or Cishet","Physical illness or LGBTQ+","true",""
"","iat","1003","f","264","262718","Traditional","Cishet","Mental illness or Cishet","Mental illness or Cishet","Physical illness or LGBTQ+","true",""
"","iat","1112","f","266","264085","Schizophrenia","Mental illness","Mental illness or Cishet","Mental illness or Cishet","Physical illness or LGBTQ+","true",""
"","iat","1129","f","268","265467","Biological","Cishet","Mental illness or Cishet","Mental illness or Cishet","Physical illness or LGBTQ+","true",""
"","iat","2069","f","270","267791","Anorexia","Mental illness","Mental illness or Cishet","Mental illness or Cishet","Physical illness or LGBTQ+","true",""
"","iat","919","j","272","268964","Influenza","Physical illness","Physical illness or LGBTQ+","Mental illness or Cishet","Physical illness or LGBTQ+","true",""
"","iat","1076","j","274","270296","Transgender","LGBTQ+","Physical illness or LGBTQ+","Mental illness or Cishet","Physical illness or LGBTQ+","true",""
"","iat","1095","f","276","271647","Conformity","Cishet","Mental illness or Cishet","Mental illness or Cishet","Physical illness or LGBTQ+","true",""
"","iat","705","f","278","272606","Cisgendered","Cishet","Mental illness or Cishet","Mental illness or Cishet","Physical illness or LGBTQ+","true",""
"","iat","619","f","280","273481","Straight","Cishet","Mental illness or Cishet","Mental illness or Cishet","Physical illness or LGBTQ+","true",""
"","iat","1311","f","282","275048","PTSD","Mental illness","Mental illness or Cishet","Mental illness or Cishet","Physical illness or LGBTQ+","true",""
"","iat","900","f","284","276204","Autism","Mental illness","Mental illness or Cishet","Mental illness or Cishet","Physical illness or LGBTQ+","true",""
"","iat","1725","j","286","278185","Inclusivity","LGBTQ+","Physical illness or LGBTQ+","Mental illness or Cishet","Physical illness or LGBTQ+","true",""
"","iat","683","j","288","279123","Androgynous","LGBTQ+","Physical illness or LGBTQ+","Mental illness or Cishet","Physical illness or LGBTQ+","true",""
"","iat","996","j","290","280372","Leukemia","Physical illness","Physical illness or LGBTQ+","Mental illness or Cishet","Physical illness or LGBTQ+","true",""
"","iat","5277","f","292","285903","Bipolar Disorder","Mental illness","Mental illness or Cishet","Mental illness or Cishet","Physical illness or LGBTQ+","true",""
"","iat","957","f","294","287115","Usual","Cishet","Mental illness or Cishet","Mental illness or Cishet","Physical illness or LGBTQ+","true",""
"","Questionnaire","67176","{""question1"":1,""question2"":1,""question3"":1,""question4"":0,""question5"":4,""question6"":3,""question7"":3,""question8"":1,""question9"":0,""question10"":4,""question11"":1,""question12"":3,""question13"":4,""question14"":4,""question15"":0}","296","354548","","","","","","","[0,1,2,3,4,5,6,7,8,9,10,11,12,13,14]"
