"whichPrime","trialType","rt","response","trial_index","time_elapsed","word","expectedCategory","expectedCategoryAsDisplayed","leftCategory","rightCategory","correct","question_order"
"CisHet","prime","7542"," ","2","24069","","","","","","",""
"","iat","2616","j","5","37666","Biological","Cishet","Cishet","LGBTQ+","Cishet","true",""
"","iat","2886","f","7","40808","Transgender","LGBTQ+","LGBTQ+","LGBTQ+","Cishet","true",""
"","iat","1901","j","9","42966","Straight","Cishet","Cishet","LGBTQ+","Cishet","true",""
"","iat","2182","j","11","45403","Heteronormative","Cishet","Cishet","LGBTQ+","Cishet","true",""
"","iat","2175","j","13","47835","Usual","Cishet","Cishet","LGBTQ+","Cishet","true",""
"","iat","2213","f","15","50307","Nonbinary","LGBTQ+","LGBTQ+","LGBTQ+","Cishet","true",""
"","iat","1407","f","17","51972","Diversity","LGBTQ+","LGBTQ+","LGBTQ+","Cishet","true",""
"","iat","1365","f","19","53595","Inclusivity","LGBTQ+","LGBTQ+","LGBTQ+","Cishet","true",""
"","iat","997","f","21","54851","Nonbinary","LGBTQ+","LGBTQ+","LGBTQ+","Cishet","true",""
"","iat","1133","j","23","56241","Straight","Cishet","Cishet","LGBTQ+","Cishet","true",""
"","iat","946","j","25","57447","Hetero","Cishet","Cishet","LGBTQ+","Cishet","true",""
"","iat","719","j","27","58424","Heterosexual","Cishet","Cishet","LGBTQ+","Cishet","true",""
"","iat","1121","f","29","59801","Pansexual","LGBTQ+","LGBTQ+","LGBTQ+","Cishet","true",""
"","iat","1107","j","31","61164","Conformity","Cishet","Cishet","LGBTQ+","Cishet","true",""
"","iat","2269","j","33","63690","Androgynous","LGBTQ+","LGBTQ+","LGBTQ+","Cishet","false",""
"","iat","1160","j","35","65107","Heterosexual","Cishet","Cishet","LGBTQ+","Cishet","true",""
"","iat","901","f","37","66263","Transgender","LGBTQ+","LGBTQ+","LGBTQ+","Cishet","true",""
"","iat","851","f","39","67369","Bisexual","LGBTQ+","LGBTQ+","LGBTQ+","Cishet","true",""
"","iat","897","j","41","68521","Usual","Cishet","Cishet","LGBTQ+","Cishet","true",""
"","iat","941","j","43","69720","Cisgendered","Cishet","Cishet","LGBTQ+","Cishet","true",""
"","iat","839","f","45","70818","Genderqueer","LGBTQ+","LGBTQ+","LGBTQ+","Cishet","true",""
"","iat","744","f","47","71819","Inclusivity","LGBTQ+","LGBTQ+","LGBTQ+","Cishet","true",""
"","iat","918","j","49","72995","Androgynous","LGBTQ+","LGBTQ+","LGBTQ+","Cishet","false",""
"","iat","878","j","51","74132","Hetero","Cishet","Cishet","LGBTQ+","Cishet","true",""
"","iat","869","j","53","75256","Conformity","Cishet","Cishet","LGBTQ+","Cishet","true",""
"","iat","911","f","55","76422","Diversity","LGBTQ+","LGBTQ+","LGBTQ+","Cishet","true",""
"","iat","930","j","57","77610","Traditional","Cishet","Cishet","LGBTQ+","Cishet","true",""
"","iat","1094","j","59","78964","Cissexual","Cishet","Cishet","LGBTQ+","Cishet","true",""
"","iat","841","f","61","80063","Bisexual","LGBTQ+","LGBTQ+","LGBTQ+","Cishet","true",""
"","iat","1210","f","63","81532","Fluidity","LGBTQ+","LGBTQ+","LGBTQ+","Cishet","true",""
"","iat","1023","j","65","82812","Heteronormative","Cishet","Cishet","LGBTQ+","Cishet","true",""
"","iat","969","f","67","84038","Genderqueer","LGBTQ+","LGBTQ+","LGBTQ+","Cishet","true",""
"","iat","2007","f","69","86302","Queerness","LGBTQ+","LGBTQ+","LGBTQ+","Cishet","true",""
"","iat","3206","j","71","89764","Biological","Cishet","Cishet","LGBTQ+","Cishet","true",""
"","iat","2678","f","73","92698","Fluidity","LGBTQ+","LGBTQ+","LGBTQ+","Cishet","true",""
"","iat","1832","j","75","94784","Cisgendered","Cishet","Cishet","LGBTQ+","Cishet","true",""
"","iat","1918","f","78","100509","Bipolar Disorder","Mental illness","Mental illness","Mental illness","Physical illness","true",""
"","iat","1388","j","80","102157","Meningitis","Physical illness","Physical illness","Mental illness","Physical illness","true",""
"","iat","1278","f","82","103689","Anxiety","Mental illness","Mental illness","Mental illness","Physical illness","true",""
"","iat","1696","j","84","105642","Epilepsy","Physical illness","Physical illness","Mental illness","Physical illness","true",""
"","iat","1016","f","86","106916","OCD","Mental illness","Mental illness","Mental illness","Physical illness","true",""
"","iat","1356","j","88","108529","Leukemia","Physical illness","Physical illness","Mental illness","Physical illness","true",""
"","iat","1139","j","90","109925","Migraine","Physical illness","Physical illness","Mental illness","Physical illness","true",""
"","iat","829","j","92","111008","PTSD","Mental illness","Mental illness","Mental illness","Physical illness","false",""
"","iat","1952","f","94","113216","Autism","Mental illness","Mental illness","Mental illness","Physical illness","true",""
"","iat","937","f","96","114408","Anorexia","Mental illness","Mental illness","Mental illness","Physical illness","true",""
"","iat","723","j","98","115388","Asthma","Physical illness","Physical illness","Mental illness","Physical illness","true",""
"","iat","651","f","100","116294","Psychosis","Mental illness","Mental illness","Mental illness","Physical illness","true",""
"","iat","678","f","102","117226","OCD","Mental illness","Mental illness","Mental illness","Physical illness","true",""
"","iat","2132","j","104","119616","Diabetes","Physical illness","Physical illness","Mental illness","Physical illness","true",""
"","iat","847","f","106","120717","Schizophrenia","Mental illness","Mental illness","Mental illness","Physical illness","true",""
"","iat","1570","f","108","122545","Depression","Mental illness","Mental illness","Mental illness","Physical illness","true",""
"","iat","824","f","110","123625","Panic Disorder","Mental illness","Mental illness","Mental illness","Physical illness","true",""
"","iat","1330","j","112","125214","Arthritis","Physical illness","Physical illness","Mental illness","Physical illness","true",""
"","iat","702","f","114","126171","Schizophrenia","Mental illness","Mental illness","Mental illness","Physical illness","true",""
"","iat","665","j","116","127094","Asthma","Physical illness","Physical illness","Mental illness","Physical illness","true",""
"","iat","750","f","118","128098","Depression","Mental illness","Mental illness","Mental illness","Physical illness","true",""
"","iat","1245","j","120","129599","Diabetes","Physical illness","Physical illness","Mental illness","Physical illness","true",""
"","iat","758","f","122","130616","Psychosis","Mental illness","Mental illness","Mental illness","Physical illness","true",""
"","iat","791","f","124","131662","Autism","Mental illness","Mental illness","Mental illness","Physical illness","true",""
"","iat","700","j","126","132618","Common Cold","Physical illness","Physical illness","Mental illness","Physical illness","true",""
"","iat","688","f","128","133561","Panic Disorder","Mental illness","Mental illness","Mental illness","Physical illness","true",""
"","iat","580","f","130","134398","Epilepsy","Physical illness","Physical illness","Mental illness","Physical illness","false",""
"","iat","684","f","132","135338","Bipolar Disorder","Mental illness","Mental illness","Mental illness","Physical illness","true",""
"","iat","709","j","134","136306","Influenza","Physical illness","Physical illness","Mental illness","Physical illness","true",""
"","iat","561","j","136","137122","Influenza","Physical illness","Physical illness","Mental illness","Physical illness","true",""
"","iat","768","j","138","138144","Migraine","Physical illness","Physical illness","Mental illness","Physical illness","true",""
"","iat","888","j","140","139290","Common Cold","Physical illness","Physical illness","Mental illness","Physical illness","true",""
"","iat","753","j","142","140301","PTSD","Mental illness","Mental illness","Mental illness","Physical illness","false",""
"","iat","1516","j","144","142076","Pneumonia","Physical illness","Physical illness","Mental illness","Physical illness","true",""
"","iat","892","j","146","143227","Arthritis","Physical illness","Physical illness","Mental illness","Physical illness","true",""
"","iat","3049","j","148","146531","Pneumonia","Physical illness","Physical illness","Mental illness","Physical illness","true",""
"","iat","2906","j","151","151270","Heteronormative","Cishet","Physical illness or Cishet","Mental illness or LGBTQ+","Physical illness or Cishet","true",""
"","iat","1392","j","153","152918","Asthma","Physical illness","Physical illness or Cishet","Mental illness or LGBTQ+","Physical illness or Cishet","true",""
"","iat","1719","j","155","154896","Diabetes","Physical illness","Physical illness or Cishet","Mental illness or LGBTQ+","Physical illness or Cishet","true",""
"","iat","906","j","157","156061","Straight","Cishet","Physical illness or Cishet","Mental illness or LGBTQ+","Physical illness or Cishet","true",""
"","iat","690","j","159","157010","Pansexual","LGBTQ+","Mental illness or LGBTQ+","Mental illness or LGBTQ+","Physical illness or Cishet","false",""
"","iat","1086","f","161","158352","Nonbinary","LGBTQ+","Mental illness or LGBTQ+","Mental illness or LGBTQ+","Physical illness or Cishet","true",""
"","iat","831","j","163","159442","Hetero","Cishet","Physical illness or Cishet","Mental illness or LGBTQ+","Physical illness or Cishet","true",""
"","iat","1051","j","165","160747","Biological","Cishet","Physical illness or Cishet","Mental illness or LGBTQ+","Physical illness or Cishet","true",""
"","iat","870","j","167","161874","Androgynous","LGBTQ+","Mental illness or LGBTQ+","Mental illness or LGBTQ+","Physical illness or Cishet","false",""
"","iat","969","f","169","163100","Panic Disorder","Mental illness","Mental illness or LGBTQ+","Mental illness or LGBTQ+","Physical illness or Cishet","true",""
"","iat","601","f","171","163954","Bisexual","LGBTQ+","Mental illness or LGBTQ+","Mental illness or LGBTQ+","Physical illness or Cishet","true",""
"","iat","911","f","173","165121","Bipolar Disorder","Mental illness","Mental illness or LGBTQ+","Mental illness or LGBTQ+","Physical illness or Cishet","true",""
"","iat","1074","j","175","166448","Meningitis","Physical illness","Physical illness or Cishet","Mental illness or LGBTQ+","Physical illness or Cishet","true",""
"","iat","4255","f","177","170958","Fluidity","LGBTQ+","Mental illness or LGBTQ+","Mental illness or LGBTQ+","Physical illness or Cishet","true",""
"","iat","2383","f","179","173600","OCD","Mental illness","Mental illness or LGBTQ+","Mental illness or LGBTQ+","Physical illness or Cishet","true",""
"","iat","1502","f","181","175359","Depression","Mental illness","Mental illness or LGBTQ+","Mental illness or LGBTQ+","Physical illness or Cishet","true",""
"","iat","728","f","183","176340","Inclusivity","LGBTQ+","Mental illness or LGBTQ+","Mental illness or LGBTQ+","Physical illness or Cishet","true",""
"","iat","607","f","185","177206","Diversity","LGBTQ+","Mental illness or LGBTQ+","Mental illness or LGBTQ+","Physical illness or Cishet","true",""
"","iat","550","j","187","178015","Pneumonia","Physical illness","Physical illness or Cishet","Mental illness or LGBTQ+","Physical illness or Cishet","true",""
"","iat","605","f","189","178875","Leukemia","Physical illness","Physical illness or Cishet","Mental illness or LGBTQ+","Physical illness or Cishet","false",""
"","iat","612","f","191","179745","Queerness","LGBTQ+","Mental illness or LGBTQ+","Mental illness or LGBTQ+","Physical illness or Cishet","true",""
"","iat","647","j","193","180650","Cissexual","Cishet","Physical illness or Cishet","Mental illness or LGBTQ+","Physical illness or Cishet","true",""
"","iat","593","j","195","181504","Usual","Cishet","Physical illness or Cishet","Mental illness or LGBTQ+","Physical illness or Cishet","true",""
"","iat","627","j","197","182388","Common Cold","Physical illness","Physical illness or Cishet","Mental illness or LGBTQ+","Physical illness or Cishet","true",""
"","iat","671","j","199","183312","Epilepsy","Physical illness","Physical illness or Cishet","Mental illness or LGBTQ+","Physical illness or Cishet","true",""
"","iat","1141","f","201","184712","Anorexia","Mental illness","Mental illness or LGBTQ+","Mental illness or LGBTQ+","Physical illness or Cishet","true",""
"","iat","1385","j","203","186356","Conformity","Cishet","Physical illness or Cishet","Mental illness or LGBTQ+","Physical illness or Cishet","true",""
"","iat","1018","f","205","187632","Psychosis","Mental illness","Mental illness or LGBTQ+","Mental illness or LGBTQ+","Physical illness or Cishet","true",""
"","iat","1519","j","207","189405","Anxiety","Mental illness","Mental illness or LGBTQ+","Mental illness or LGBTQ+","Physical illness or Cishet","false",""
"","iat","689","j","209","190350","Heterosexual","Cishet","Physical illness or Cishet","Mental illness or LGBTQ+","Physical illness or Cishet","true",""
"","iat","773","f","211","191380","Transgender","LGBTQ+","Mental illness or LGBTQ+","Mental illness or LGBTQ+","Physical illness or Cishet","true",""
"","iat","822","j","213","192457","Traditional","Cishet","Physical illness or Cishet","Mental illness or LGBTQ+","Physical illness or Cishet","true",""
"","iat","693","j","215","193403","Arthritis","Physical illness","Physical illness or Cishet","Mental illness or LGBTQ+","Physical illness or Cishet","true",""
"","iat","633","j","217","194289","Migraine","Physical illness","Physical illness or Cishet","Mental illness or LGBTQ+","Physical illness or Cishet","true",""
"","iat","638","f","219","195185","Schizophrenia","Mental illness","Mental illness or LGBTQ+","Mental illness or LGBTQ+","Physical illness or Cishet","true",""
"","iat","2596","f","221","198040","Autism","Mental illness","Mental illness or LGBTQ+","Mental illness or LGBTQ+","Physical illness or Cishet","true",""
"","iat","1445","f","224","200673","Schizophrenia","Mental illness","Mental illness or Cishet","Mental illness or Cishet","Physical illness or LGBTQ+","true",""
"","iat","721","f","226","201653","Panic Disorder","Mental illness","Mental illness or Cishet","Mental illness or Cishet","Physical illness or LGBTQ+","true",""
"","iat","6197","f","228","208109","Conformity","Cishet","Mental illness or Cishet","Mental illness or Cishet","Physical illness or LGBTQ+","true",""
"","iat","1641","j","230","210007","Anxiety","Mental illness","Mental illness or Cishet","Mental illness or Cishet","Physical illness or LGBTQ+","false",""
"","iat","1580","f","232","211846","Cisgendered","Cishet","Mental illness or Cishet","Mental illness or Cishet","Physical illness or LGBTQ+","true",""
"","iat","1172","j","234","213277","Asthma","Physical illness","Physical illness or LGBTQ+","Mental illness or Cishet","Physical illness or LGBTQ+","true",""
"","iat","1001","j","236","214532","Queerness","LGBTQ+","Physical illness or LGBTQ+","Mental illness or Cishet","Physical illness or LGBTQ+","true",""
"","iat","2278","j","238","217068","Meningitis","Physical illness","Physical illness or LGBTQ+","Mental illness or Cishet","Physical illness or LGBTQ+","true",""
"","iat","1653","f","240","218980","Anorexia","Mental illness","Mental illness or Cishet","Mental illness or Cishet","Physical illness or LGBTQ+","true",""
"","iat","1186","j","242","220422","Pneumonia","Physical illness","Physical illness or LGBTQ+","Mental illness or Cishet","Physical illness or LGBTQ+","true",""
"","iat","1401","f","244","222081","Hetero","Cishet","Mental illness or Cishet","Mental illness or Cishet","Physical illness or LGBTQ+","true",""
"","iat","908","f","246","223246","Traditional","Cishet","Mental illness or Cishet","Mental illness or Cishet","Physical illness or LGBTQ+","true",""
"","iat","696","f","248","224202","Biological","Cishet","Mental illness or Cishet","Mental illness or Cishet","Physical illness or LGBTQ+","true",""
"","iat","996","f","250","225452","Androgynous","LGBTQ+","Physical illness or LGBTQ+","Mental illness or Cishet","Physical illness or LGBTQ+","false",""
"","iat","1821","f","252","227526","Depression","Mental illness","Mental illness or Cishet","Mental illness or Cishet","Physical illness or LGBTQ+","true",""
"","iat","2932","f","254","230717","Epilepsy","Physical illness","Physical illness or LGBTQ+","Mental illness or Cishet","Physical illness or LGBTQ+","false",""
"","iat","694","f","256","231669","Autism","Mental illness","Mental illness or Cishet","Mental illness or Cishet","Physical illness or LGBTQ+","true",""
"","iat","586","j","258","232510","Cissexual","Cishet","Mental illness or Cishet","Mental illness or Cishet","Physical illness or LGBTQ+","false",""
"","iat","643","f","260","233407","PTSD","Mental illness","Mental illness or Cishet","Mental illness or Cishet","Physical illness or LGBTQ+","true",""
"","iat","692","j","262","234353","Usual","Cishet","Mental illness or Cishet","Mental illness or Cishet","Physical illness or LGBTQ+","false",""
"","iat","1422","j","264","236030","Fluidity","LGBTQ+","Physical illness or LGBTQ+","Mental illness or Cishet","Physical illness or LGBTQ+","true",""
"","iat","957","j","266","237246","Bisexual","LGBTQ+","Physical illness or LGBTQ+","Mental illness or Cishet","Physical illness or LGBTQ+","true",""
"","iat","850","f","268","238353","Heterosexual","Cishet","Mental illness or Cishet","Mental illness or Cishet","Physical illness or LGBTQ+","true",""
"","iat","1628","j","270","240238","Common Cold","Physical illness","Physical illness or LGBTQ+","Mental illness or Cishet","Physical illness or LGBTQ+","true",""
"","iat","1242","j","272","241738","Pansexual","LGBTQ+","Physical illness or LGBTQ+","Mental illness or Cishet","Physical illness or LGBTQ+","true",""
"","iat","1565","j","274","243558","Influenza","Physical illness","Physical illness or LGBTQ+","Mental illness or Cishet","Physical illness or LGBTQ+","true",""
"","iat","2042","f","276","245859","Bipolar Disorder","Mental illness","Mental illness or Cishet","Mental illness or Cishet","Physical illness or LGBTQ+","true",""
"","iat","1656","j","278","247770","Genderqueer","LGBTQ+","Physical illness or LGBTQ+","Mental illness or Cishet","Physical illness or LGBTQ+","true",""
"","iat","1802","j","280","249831","Transgender","LGBTQ+","Physical illness or LGBTQ+","Mental illness or Cishet","Physical illness or LGBTQ+","true",""
"","iat","1041","j","282","251128","Migraine","Physical illness","Physical illness or LGBTQ+","Mental illness or Cishet","Physical illness or LGBTQ+","true",""
"","iat","2904","j","284","254288","Diversity","LGBTQ+","Physical illness or LGBTQ+","Mental illness or Cishet","Physical illness or LGBTQ+","true",""
"","iat","1756","f","286","256300","Straight","Cishet","Mental illness or Cishet","Mental illness or Cishet","Physical illness or LGBTQ+","true",""
"","iat","825","j","288","257379","Leukemia","Physical illness","Physical illness or LGBTQ+","Mental illness or Cishet","Physical illness or LGBTQ+","true",""
"","iat","735","j","290","258368","Arthritis","Physical illness","Physical illness or LGBTQ+","Mental illness or Cishet","Physical illness or LGBTQ+","true",""
"","iat","1105","j","292","259730","Nonbinary","LGBTQ+","Physical illness or LGBTQ+","Mental illness or Cishet","Physical illness or LGBTQ+","true",""
"","iat","1354","f","294","261341","OCD","Mental illness","Mental illness or Cishet","Mental illness or Cishet","Physical illness or LGBTQ+","true",""
"","Questionnaire","78562","{""question1"":2,""question2"":2,""question3"":1,""question4"":0,""question5"":3,""question6"":4,""question7"":4,""question8"":1,""question9"":0,""question10"":4,""question11"":1,""question12"":4,""question13"":4,""question14"":4,""question15"":0}","296","340168","","","","","","","[0,1,2,3,4,5,6,7,8,9,10,11,12,13,14]"
